timestamp,contador,ax,ay,az,gx,gy,gz
98687.9046598,106.0,0.88,0.02,-0.4,-9.27,27.62,-11.04
98687.9083895,107.0,0.82,0.03,-0.47,-8.66,33.48,-14.57
98687.9214398,108.0,0.78,0.03,-0.49,-7.68,43.23,-19.15
98687.9216857,109.0,0.75,0.02,-0.48,-6.22,56.77,-23.23
98687.9219372,110.0,0.71,0.01,-0.46,-5.55,70.37,-27.74
98687.9263271,111.0,0.73,0.02,-0.43,-3.48,87.07,-31.89
98687.9340719,112.0,0.74,0.06,-0.46,0.18,102.68,-35.98
98687.9357896,113.0,0.8,0.06,-0.42,5.55,112.87,-39.27
98687.939673,114.0,0.98,0.07,-0.33,10.73,116.46,-40.37
98687.9495594,115.0,1.03,0.06,-0.29,14.63,111.83,-39.88
98687.9497837,116.0,1.14,0.05,-0.24,16.65,105.18,-38.48
98687.9542385,117.0,1.12,0.04,-0.19,16.77,95.55,-36.95
98687.9587982,118.0,1.09,0.04,-0.2,17.44,86.4,-34.45
98687.965998,119.0,1.04,0.03,-0.18,17.38,79.94,-31.89
98687.9705399,120.0,1.13,0.05,-0.1,15.37,74.21,-29.57
98687.9713977,121.0,1.16,0.06,-0.08,12.93,65.24,-26.4
98687.9824547,122.0,1.12,0.07,-0.08,9.88,56.89,-24.57
98687.9826578,123.0,1.13,0.08,-0.0,5.06,51.04,-22.68
98687.9881615,124.0,1.12,0.09,-0.02,1.28,43.72,-20.43
98687.9895559,125.0,1.1,0.07,-0.1,-1.22,37.38,-18.72
98687.9964868,126.0,1.07,0.08,-0.18,-1.1,31.65,-17.32
98687.9966959,127.0,1.03,0.09,-0.2,-1.04,28.17,-16.77
98688.003046,128.0,0.98,0.09,-0.21,-1.65,28.05,-17.13
98688.0123739,129.0,0.96,0.08,-0.22,-2.5,29.39,-18.17
98688.0125974,130.0,0.92,0.08,-0.24,-3.11,32.8,-19.57
98688.0177728,131.0,0.91,0.08,-0.24,-4.09,37.8,-21.52
98688.020805,132.0,0.91,0.07,-0.25,-4.51,43.11,-23.48
98688.0291985,133.0,0.9,0.07,-0.24,-4.57,48.96,-25.85
98688.0294188,134.0,0.9,0.06,-0.23,-4.94,55.73,-27.99
98688.0348542,135.0,0.91,0.06,-0.21,-5.24,61.4,-30.06
98688.0382739,136.0,0.92,0.05,-0.2,-4.88,66.28,-31.89
98688.0456962,137.0,0.94,0.05,-0.2,-4.33,70.37,-32.68
98688.0459108,138.0,0.95,0.05,-0.18,-3.84,73.17,-33.84
98688.0512011,139.0,0.97,0.06,-0.15,-3.11,75.18,-34.45
98688.0616628,140.0,0.99,0.07,-0.13,-3.11,75.91,-34.7
98688.0619416,141.0,1.02,0.09,-0.12,-2.38,74.45,-33.66
98688.0675797,142.0,1.07,0.09,-0.11,-1.46,69.63,-31.34
98688.0678019,143.0,1.12,0.1,-0.08,-0.98,60.91,-27.56
98688.0763732,144.0,1.15,0.1,-0.06,-1.28,50.24,-22.56
98688.0812402,145.0,1.18,0.1,-0.03,-2.2,37.5,-17.38
98688.0814475,146.0,1.18,0.09,-0.02,-3.48,24.33,-12.2
98688.0861388,147.0,1.17,0.09,-0.03,-4.76,11.46,-7.2
98688.0936475,148.0,1.16,0.1,-0.06,-5.98,0.37,-3.29
98688.0985691,149.0,1.12,0.09,-0.05,-6.83,-9.15,0.06
98688.0987897,150.0,1.09,0.1,-0.09,-7.8,-15.49,1.89
98688.1102338,151.0,1.05,0.11,-0.12,-8.72,-19.63,3.54
98688.1104407,152.0,1.02,0.12,-0.16,-8.48,-21.65,3.54
98688.1156772,153.0,0.98,0.12,-0.18,-8.6,-21.46,3.54
98688.116607,154.0,0.96,0.12,-0.2,-8.05,-19.88,3.11
98688.1252099,155.0,0.95,0.11,-0.21,-7.44,-17.56,1.77
98688.1254169,156.0,0.93,0.11,-0.22,-6.46,-14.21,0.67
98688.1305093,157.0,0.92,0.1,-0.22,-5.61,-10.0,-0.85
98688.1344447,158.0,0.92,0.1,-0.21,-4.94,-5.12,-2.44
98688.1422088,159.0,0.85,0.14,-0.26,-2.56,1.52,-3.78
98688.1424083,160.0,0.89,0.12,-0.19,-0.18,9.63,-5.43
98688.1476091,161.0,0.89,0.12,-0.17,0.85,15.91,-7.44
98688.1498029,162.0,0.87,0.12,-0.19,2.2,23.6,-8.66
98688.1573059,163.0,0.86,0.11,-0.19,3.48,31.77,-10.18
98688.1632495,164.0,0.87,0.11,-0.18,4.39,39.51,-11.95
98688.1636759,165.0,0.9,0.1,-0.18,4.82,46.28,-13.29
98688.1735552,166.0,0.93,0.1,-0.17,4.88,50.91,-14.76
98688.173772,167.0,0.98,0.1,-0.14,4.82,52.99,-15.18
98688.1793722,168.0,1.03,0.1,-0.11,4.7,51.16,-14.63
98688.1822264,169.0,1.07,0.1,-0.09,3.84,46.59,-13.11
98688.1900655,170.0,1.1,0.08,-0.07,3.29,39.94,-10.85
98688.1902719,171.0,1.15,0.08,-0.06,2.74,31.46,-8.17
98688.1959539,172.0,1.17,0.08,-0.05,1.4,20.61,-5.12
98688.2055508,173.0,1.19,0.09,-0.04,1.16,8.23,-2.07
98688.2057491,174.0,1.19,0.09,-0.03,0.06,-3.66,1.34
98688.2117385,175.0,1.16,0.1,-0.05,-0.67,-14.94,4.88
98688.211941,176.0,1.13,0.1,-0.07,-1.16,-24.63,7.32
98688.2143712,177.0,1.11,0.11,-0.08,-1.95,-31.95,9.82
98688.2229699,178.0,1.1,0.11,-0.1,-2.26,-38.96,12.2
98688.2293446,179.0,1.11,0.11,-0.1,-2.44,-46.34,14.7
98688.2305165,180.0,1.12,0.12,-0.09,-2.38,-55.18,17.56
98688.2374251,181.0,1.14,0.13,-0.09,-2.2,-64.82,20.98
98688.2425614,182.0,1.15,0.13,-0.09,-1.83,-75.49,24.76
98688.2427714,183.0,1.15,0.12,-0.09,-1.52,-86.4,28.54
98688.2524522,184.0,1.12,0.12,-0.11,-1.52,-96.65,31.83
98688.2526568,185.0,1.09,0.12,-0.14,-1.46,-104.15,34.33
98688.2574061,186.0,1.05,0.11,-0.17,-0.67,-109.51,35.85
98688.2604277,187.0,1.02,0.11,-0.18,-0.3,-112.26,37.07
98688.268658,188.0,0.99,0.1,-0.21,0.24,-113.41,37.32
98688.2736237,189.0,0.97,0.09,-0.22,1.52,-113.17,37.32
98688.2742111,190.0,0.97,0.09,-0.23,2.32,-113.11,37.13
98688.2851149,191.0,0.96,0.08,-0.24,3.48,-110.98,36.1
98688.2853224,192.0,0.93,0.07,-0.28,4.88,-108.05,34.57
98688.289971,193.0,0.92,0.07,-0.31,6.95,-104.15,32.5
98688.2922263,194.0,0.87,0.06,-0.27,7.32,-97.2,29.82
98688.3006382,195.0,0.84,0.06,-0.32,7.2,-89.15,26.04
98688.300845,196.0,0.81,0.06,-0.35,8.17,-79.39,22.87
98688.3058267,197.0,0.82,0.06,-0.33,8.48,-68.54,19.76
98688.3101068,198.0,0.86,0.06,-0.28,7.74,-57.87,16.77
98688.3175365,199.0,0.86,0.07,-0.34,7.32,-49.82,13.48
98688.3177504,200.0,0.87,0.08,-0.3,6.77,-42.07,11.71
98688.3224808,201.0,0.87,0.06,-0.29,6.16,-38.29,9.82
98688.3329536,202.0,0.9,0.06,-0.33,6.65,-35.37,8.35
98688.3331876,203.0,0.92,0.06,-0.28,7.01,-33.11,7.74
98688.3382681,204.0,0.94,0.05,-0.26,6.71,-32.26,7.13
98688.3395707,205.0,0.95,0.04,-0.26,7.07,-32.8,7.13
98688.3499225,206.0,0.97,0.04,-0.26,7.01,-32.26,6.83
98688.3501343,207.0,0.96,0.03,-0.29,6.95,-31.83,6.1
98688.3549681,208.0,0.9,0.01,-0.29,6.65,-31.83,4.45
98688.3590223,209.0,0.88,0.0,-0.29,6.04,-24.94,3.17
98688.3664934,210.0,0.85,0.01,-0.32,5.06,-16.89,0.67
98688.3666897,211.0,0.8,0.02,-0.31,3.35,-7.38,-2.56
98688.3718747,212.0,0.84,0.04,-0.31,1.83,3.11,-6.04
98688.3820455,213.0,0.85,0.06,-0.36,0.55,12.2,-9.57
98688.3822869,214.0,0.84,0.05,-0.37,-0.37,19.7,-14.39
98688.3874992,215.0,0.84,0.04,-0.31,-1.83,30.18,-17.99
98688.3877148,216.0,0.86,0.05,-0.32,-2.87,39.09,-21.89
98688.390017,217.0,0.85,0.04,-0.32,-4.02,46.89,-26.16
98688.3980234,218.0,0.85,0.02,-0.28,-5.61,57.2,-29.76
98688.4034732,219.0,0.84,0.03,-0.3,-7.2,66.59,-34.33
98688.4061395,220.0,0.81,0.04,-0.34,-8.05,77.5,-39.15
98688.4142287,221.0,0.79,0.05,-0.33,-7.99,89.39,-43.72
98688.4146937,222.0,0.79,0.07,-0.34,-8.05,101.95,-48.41
98688.4198388,223.0,0.8,0.1,-0.33,-7.87,113.66,-52.8
98688.4301211,224.0,0.82,0.12,-0.3,-6.52,125.49,-56.89
98688.4303367,225.0,0.84,0.14,-0.29,-5.55,135.61,-60.12
98688.4357866,226.0,0.85,0.17,-0.27,-3.48,142.68,-62.93
98688.4360572,227.0,0.86,0.17,-0.23,-2.07,150.12,-64.88
98688.4471002,228.0,0.9,0.16,-0.17,-1.16,156.34,-65.91
98688.4473193,229.0,0.92,0.16,-0.12,-0.3,160.67,-66.04
98688.4527315,230.0,0.94,0.16,-0.11,0.55,162.32,-65.85
98688.4547672,231.0,0.97,0.15,-0.08,1.34,162.74,-64.76
98688.4633421,232.0,0.99,0.16,-0.07,2.38,161.22,-63.29
98688.4638051,233.0,1.0,0.15,-0.03,2.5,158.9,-61.59
98688.468961,234.0,1.02,0.15,-0.02,2.38,155.67,-59.33
98688.4795534,235.0,1.09,0.15,0.0,1.59,151.95,-55.98
98688.4797588,236.0,1.1,0.14,0.02,0.37,143.6,-52.2
98688.4853791,237.0,1.11,0.13,0.05,-0.79,135.43,-48.17
98688.4866038,238.0,1.15,0.13,0.03,-1.16,126.1,-43.29
98688.495315,239.0,1.22,0.13,0.04,-2.62,115.85,-37.44
98688.4955239,240.0,1.18,0.13,0.07,-4.15,101.83,-32.44
98688.5012037,241.0,1.31,0.14,0.12,-5.49,87.93,-25.3
98688.5105741,242.0,2.23,0.33,-0.08,-3.11,-17.01,-2.01
98688.5107961,243.0,-0.09,-0.14,0.1,-7.99,-5.43,-12.93
98688.5110066,244.0,0.88,0.04,0.35,-12.56,-4.51,0.61
98688.5182584,245.0,0.65,0.14,-0.42,-15.85,-7.8,5.55
98688.5280895,246.0,0.87,0.1,0.12,-19.09,6.34,2.32
98688.5282847,247.0,1.19,0.16,0.02,-19.09,-8.48,5.43
98688.534491,248.0,0.74,0.15,-0.17,-19.27,3.17,7.07
98688.5347033,249.0,0.96,0.18,-0.1,-17.62,-4.82,7.87
98688.5474922,250.0,1.0,0.17,-0.09,-16.1,-4.02,9.21
98688.5478793,251.0,0.93,0.17,-0.16,-14.33,-0.55,9.94
98688.548128,252.0,0.96,0.15,-0.11,-12.38,-1.4,10.24
98688.5542959,253.0,1.09,0.14,-0.14,-10.24,-1.71,10.67
98688.5557022,254.0,0.96,0.13,-0.16,-8.66,1.46,10.91
98688.5639309,255.0,1.02,0.12,-0.11,-6.95,-0.24,10.55
98688.5641334,256.0,1.01,0.13,-0.1,-5.98,1.52,11.22
98688.570028,257.0,0.99,0.14,-0.09,-4.94,1.04,11.16
98688.579785,258.0,1.0,0.15,-0.06,-4.09,-0.55,11.34
98688.57999,259.0,0.98,0.13,-0.05,-4.45,0.79,11.34
98688.5859514,260.0,1.02,0.14,-0.04,-4.27,-0.79,11.16
98688.5874282,261.0,1.0,0.12,-0.04,-4.7,-0.85,10.49
98688.5961401,262.0,1.02,0.11,-0.04,-5.43,-1.28,9.88
98688.5963532,263.0,1.07,0.11,-0.03,-5.91,-4.27,9.39
98688.6022845,264.0,1.15,0.12,0.01,-6.16,-12.68,9.88
98688.6033854,265.0,1.2,0.12,0.01,-6.59,-24.82,12.07
98688.6122192,266.0,1.17,0.13,-0.02,-6.89,-36.1,14.57
98688.6129692,267.0,1.25,0.13,0.02,-6.83,-51.65,17.93
98688.6184138,268.0,1.24,0.14,0.04,-7.01,-68.23,21.52
98688.6282609,269.0,1.19,0.17,0.03,-7.93,-83.05,24.51
98688.6284625,270.0,1.15,0.17,0.01,-8.11,-93.35,27.07
98688.6342136,271.0,1.13,0.14,-0.02,-7.32,-101.59,28.96
98688.6353364,272.0,1.12,0.13,-0.05,-6.4,-109.63,30.79
98688.6441988,273.0,1.1,0.12,-0.07,-5.06,-116.89,32.68
98688.6444181,274.0,1.08,0.11,-0.1,-3.78,-123.6,34.21
98688.6508095,275.0,1.07,0.11,-0.14,-1.52,-127.74,35.24
98688.6524579,276.0,1.05,0.1,-0.14,0.3,-131.59,35.73
98688.6612625,277.0,1.04,0.11,-0.16,2.32,-135.12,36.28
98688.6614665,278.0,1.02,0.14,-0.2,4.02,-137.56,35.73
98688.6684534,279.0,1.0,0.13,-0.22,5.55,-139.15,34.94
98688.6776881,280.0,0.98,0.14,-0.23,5.91,-138.29,34.27
98688.6778973,281.0,0.93,0.13,-0.23,5.98,-137.2,32.56
98688.678099,282.0,0.93,0.13,-0.25,5.91,-134.88,31.4
98688.6849919,283.0,0.9,0.13,-0.29,6.4,-131.28,28.96
98688.6929651,284.0,0.91,0.14,-0.31,6.71,-125.24,27.44
98688.693173,285.0,0.9,0.14,-0.27,6.52,-120.67,25.73
98688.6977411,286.0,0.91,0.15,-0.33,7.99,-117.8,23.29
98688.706304,287.0,0.94,0.13,-0.25,8.72,-113.48,23.23
98688.7065186,288.0,0.9,0.12,-0.24,8.72,-113.48,22.13
98688.7124341,289.0,0.96,0.11,-0.27,9.45,-109.45,21.83
98688.7139927,290.0,0.93,0.11,-0.32,10.24,-108.66,22.07
98688.7214789,291.0,0.99,0.09,-0.25,10.3,-107.93,21.59
98688.7264778,292.0,0.96,0.08,-0.29,10.67,-105.12,21.1
98688.7279925,293.0,0.9,0.06,-0.21,9.57,-101.65,20.91
98688.735102,294.0,0.88,0.07,-0.28,8.54,-97.74,19.63
98688.7399666,295.0,0.85,0.07,-0.29,8.23,-93.41,18.48
98688.7423709,296.0,0.85,0.07,-0.3,7.07,-88.23,18.48
98688.7500242,297.0,0.88,0.07,-0.28,6.34,-86.95,17.99
98688.7502471,298.0,0.9,0.08,-0.3,6.16,-83.54,18.05
98688.7553453,299.0,0.88,0.06,-0.28,5.49,-80.24,17.62
98688.7661417,300.0,0.88,0.05,-0.3,4.76,-77.07,16.77
98688.7663457,301.0,0.85,0.06,-0.38,5.49,-71.95,15.49
98688.766884,302.0,0.86,0.06,-0.35,5.37,-63.72,14.57
98688.7733155,303.0,0.86,0.06,-0.37,5.49,-57.07,12.8
98688.7819335,304.0,0.84,0.06,-0.44,6.16,-50.61,11.16
98688.7821411,305.0,0.82,0.04,-0.4,6.4,-42.87,9.7
98688.7870055,306.0,0.81,0.05,-0.42,6.59,-36.04,7.5
98688.7888139,307.0,0.81,0.05,-0.39,7.2,-26.28,5.67
98688.7984802,308.0,0.78,0.05,-0.34,6.4,-16.1,3.6
98688.7989649,309.0,0.76,0.04,-0.37,5.85,-5.55,1.04
98688.8034883,310.0,0.76,0.04,-0.4,5.3,6.34,-0.85
98688.8136547,311.0,0.71,0.03,-0.38,4.15,18.23,-4.02
98688.8138563,312.0,0.75,0.02,-0.38,2.56,33.78,-6.52
98688.8186586,313.0,0.75,0.01,-0.4,1.16,47.99,-10.06
98688.8193632,314.0,0.75,0.01,-0.39,-0.61,63.05,-14.21
98688.8293354,315.0,0.76,0.0,-0.4,-1.28,77.38,-18.48
98688.8295465,316.0,0.76,0.0,-0.41,-2.62,91.22,-23.41
98688.8343138,317.0,0.72,0.01,-0.42,-2.56,106.4,-28.41
98688.8379641,318.0,0.7,0.02,-0.41,-2.5,123.29,-34.21
98688.8460507,319.0,0.71,0.04,-0.4,-2.8,140.12,-39.51
98688.8509561,320.0,0.73,0.06,-0.35,-3.35,155.55,-44.33
98688.8511763,321.0,0.74,0.08,-0.32,-4.21,170.12,-49.02
98688.8617176,322.0,0.79,0.09,-0.3,-3.17,181.89,-52.68
98688.861937,323.0,0.84,0.1,-0.28,-1.71,190.3,-54.82
98688.8668569,324.0,0.89,0.11,-0.24,-0.24,195.85,-56.46
98688.8681855,325.0,0.94,0.13,-0.21,1.04,198.41,-56.65
98688.8772814,326.0,1.0,0.14,-0.15,2.44,197.38,-55.91
98688.8823129,327.0,1.05,0.15,-0.11,3.78,192.01,-53.29
98688.88253,328.0,1.11,0.16,-0.08,4.88,182.93,-49.57
98688.8928626,329.0,1.15,0.16,-0.06,5.73,170.55,-44.57
98688.8930674,330.0,1.19,0.16,-0.03,6.28,155.49,-38.72
98688.898049,331.0,1.23,0.16,-0.02,6.4,137.93,-31.65
98688.9001413,332.0,1.26,0.15,-0.01,6.22,119.27,-24.39
98688.9090371,333.0,1.27,0.15,-0.01,5.49,99.02,-16.77
98688.9092586,334.0,1.27,0.15,-0.01,4.88,79.63,-10.0
98688.9142373,335.0,1.28,0.13,-0.0,4.21,60.79,-3.72
98688.9247587,336.0,1.27,0.13,-0.01,3.23,42.44,1.22
98688.9249766,337.0,1.24,0.1,-0.01,1.71,26.65,5.18
98688.9301752,338.0,1.18,0.07,-0.01,-0.55,13.6,7.2
98688.9311786,339.0,1.14,0.05,0.0,-3.29,4.82,8.11
98688.933912,340.0,1.11,0.06,-0.04,-6.52,-1.83,7.8
98688.9406103,341.0,1.08,0.07,-0.03,-9.51,-6.28,6.4
98688.9462693,342.0,1.06,0.08,-0.07,-11.52,-9.39,4.27
98688.9477471,343.0,1.04,0.08,-0.1,-12.68,-10.3,1.65
98688.9573965,344.0,1.0,0.09,-0.15,-13.48,-8.9,-1.95
98688.9577009,345.0,0.97,0.1,-0.16,-13.96,-5.0,-6.65
98688.962971,346.0,0.95,0.1,-0.16,-13.72,-0.67,-11.4
98688.9661101,347.0,0.94,0.1,-0.2,-12.99,4.82,-16.46
98688.9729608,348.0,0.93,0.11,-0.21,-12.07,10.98,-22.13
98688.9781677,349.0,0.93,0.12,-0.23,-10.0,17.62,-27.68
98688.9789541,350.0,0.92,0.11,-0.21,-8.48,24.51,-33.41
98688.9887341,351.0,0.92,0.12,-0.18,-8.17,31.95,-38.84
98688.9889402,352.0,0.93,0.12,-0.15,-8.11,38.17,-44.15
98688.994309,353.0,0.96,0.14,-0.13,-8.9,43.05,-48.48
98688.9966362,354.0,0.99,0.16,-0.1,-9.51,45.49,-52.32
98689.0053218,355.0,1.0,0.17,-0.06,-10.43,46.71,-55.3
98689.0055362,356.0,1.03,0.17,-0.08,-10.73,45.85,-57.26
98689.0108092,357.0,1.04,0.19,-0.06,-11.4,42.99,-58.54
98689.0208655,358.0,1.06,0.2,-0.05,-12.38,38.84,-58.84
98689.0210966,359.0,1.07,0.19,-0.07,-12.56,34.15,-58.35
98689.0262263,360.0,1.08,0.2,-0.03,-11.89,27.87,-57.62
98689.0280131,361.0,1.08,0.21,-0.03,-12.56,22.07,-55.91
98689.0374606,362.0,1.06,0.21,-0.01,-13.05,15.12,-54.21
98689.0376736,363.0,1.06,0.22,-0.02,-13.72,9.7,-51.71
98689.0428902,364.0,1.11,0.23,-0.06,-14.15,2.68,-48.6
98689.0461129,365.0,1.09,0.22,-0.02,-15.61,-6.34,-44.7
98689.0532556,366.0,1.1,0.2,-0.04,-15.91,-15.0,-39.57
98689.0584803,367.0,1.11,0.19,0.0,-18.41,-24.33,-34.02
98689.0590869,368.0,1.11,0.21,-0.05,-20.55,-33.35,-28.84
98689.0687122,369.0,1.01,0.21,-0.06,-20.73,-41.1,-22.07
98689.0689317,370.0,0.98,0.19,-0.11,-19.94,-44.27,-15.85
98689.0740798,371.0,0.91,0.2,-0.11,-18.84,-44.09,-10.98
98689.0764948,372.0,0.84,0.19,-0.13,-17.62,-40.55,-6.77
98689.0854455,373.0,0.85,0.21,-0.17,-17.01,-31.71,-2.87
98689.0907022,374.0,0.78,0.2,-0.17,-15.85,-23.9,-0.43
98689.0909186,375.0,0.77,0.19,-0.18,-14.7,-12.5,2.74
98689.0946828,376.0,0.75,0.2,-0.17,-13.54,-1.1,6.04
98689.101719,377.0,0.77,0.18,-0.19,-12.07,10.24,9.02
98689.106915,378.0,0.81,0.18,-0.19,-10.0,20.43,12.5
98689.1079112,379.0,0.85,0.18,-0.15,-8.29,27.32,16.22
98689.1171187,380.0,0.89,0.17,-0.17,-5.37,32.5,20.49
98689.1173241,381.0,0.91,0.17,-0.17,-2.5,34.51,25.55
98689.1224896,382.0,0.95,0.17,-0.16,0.24,34.57,30.43
98689.1261147,383.0,0.97,0.18,-0.13,1.89,33.72,34.82
98689.1334793,384.0,1.0,0.19,-0.09,2.62,31.28,39.27
98689.1388485,385.0,1.03,0.17,-0.07,2.62,27.26,42.74
98689.139049,386.0,1.05,0.15,-0.06,1.59,22.68,45.73
98689.1438292,387.0,1.06,0.15,-0.06,1.04,17.38,48.17
98689.1511647,388.0,1.06,0.14,-0.06,0.24,11.89,49.51
98689.1564941,389.0,1.06,0.13,-0.07,-1.04,7.99,50.55
98689.1567007,390.0,1.06,0.14,-0.07,-1.52,4.15,50.37
98689.1659143,391.0,1.05,0.13,-0.08,-2.5,1.28,49.27
98689.1661159,392.0,1.04,0.13,-0.09,-2.68,-0.61,47.87
98689.1714184,393.0,1.03,0.12,-0.09,-3.48,-1.59,45.12
98689.174961,394.0,1.02,0.13,-0.1,-4.39,-1.83,41.83
98689.1824278,395.0,1.01,0.13,-0.12,-5.12,-0.98,37.87
98689.1826306,396.0,1.01,0.13,-0.12,-5.67,0.61,33.35
98689.1880157,397.0,1.0,0.13,-0.13,-6.22,2.32,28.17
98689.1882197,398.0,1.02,0.12,-0.11,-7.56,4.09,22.56
98689.197838,399.0,1.02,0.07,-0.1,-7.74,6.34,16.89
98689.2033936,400.0,1.02,0.08,-0.09,-8.11,7.87,11.1
98689.2035929,401.0,1.03,0.08,-0.1,-8.41,9.45,4.88
98689.2144171,402.0,1.03,0.09,-0.09,-7.87,11.28,-1.46
98689.2146345,403.0,1.03,0.1,-0.09,-7.26,13.35,-8.11
98689.2199133,404.0,1.02,0.1,-0.09,-6.83,15.73,-14.51
98689.2223342,405.0,1.01,0.11,-0.09,-6.28,17.8,-20.49
98689.2298101,406.0,1.0,0.11,-0.09,-5.55,20.73,-26.59
98689.2300215,407.0,1.01,0.11,-0.08,-5.0,23.72,-32.26
98689.2355444,408.0,1.03,0.13,-0.08,-4.09,25.24,-36.95
98689.245407,409.0,1.05,0.15,-0.05,-3.6,24.27,-40.79
98689.2456163,410.0,1.03,0.16,-0.06,-2.68,23.78,-44.21
98689.2512021,411.0,1.02,0.17,-0.05,-2.62,23.29,-47.07
98689.2535716,412.0,1.02,0.2,-0.05,-2.93,22.32,-49.76
98689.2615632,413.0,1.02,0.21,-0.04,-3.35,21.04,-51.83
98689.2617739,414.0,1.03,0.2,-0.04,-3.48,19.15,-52.74
98689.2672788,415.0,1.04,0.23,-0.04,-3.9,16.16,-53.11
98689.270376,416.0,1.03,0.23,-0.02,-4.57,12.26,-52.8
98689.2788736,417.0,1.05,0.23,-0.03,-5.3,8.78,-51.28
98689.2790911,418.0,1.04,0.23,-0.02,-6.4,2.26,-50.0
98689.2846146,419.0,1.05,0.2,-0.02,-6.77,-4.21,-46.71
98689.2941472,420.0,1.05,0.21,-0.04,-7.38,-8.35,-43.41
98689.2943661,421.0,1.03,0.21,-0.0,-8.41,-14.88,-40.3
98689.3000629,422.0,1.01,0.21,-0.02,-9.02,-19.39,-36.1
98689.300286,423.0,1.01,0.22,-0.06,-9.7,-21.34,-31.95
98689.309561,424.0,0.99,0.22,-0.05,-10.06,-24.33,-27.99
98689.3097876,425.0,0.99,0.21,-0.05,-10.73,-25.61,-23.78
98689.3155825,426.0,0.92,0.22,-0.06,-11.52,-27.5,-20.18
98689.3261159,427.0,0.92,0.2,-0.09,-12.13,-23.35,-15.37
98689.326345,428.0,0.88,0.19,-0.04,-12.68,-21.95,-10.98
98689.3266037,429.0,0.88,0.17,-0.06,-12.68,-18.05,-6.1
98689.3324614,430.0,0.88,0.18,-0.08,-12.5,-13.54,-1.46
98689.3418091,431.0,0.89,0.17,-0.13,-11.16,-9.33,3.66
98689.342022,432.0,0.89,0.17,-0.12,-9.76,-5.49,8.9
98689.3479425,433.0,0.88,0.16,-0.13,-8.11,-1.4,14.57
98689.348157,434.0,0.89,0.16,-0.14,-5.24,2.07,20.24
98689.3586444,435.0,0.87,0.18,-0.14,-2.93,5.98,25.37
98689.3588469,436.0,0.86,0.18,-0.09,-2.2,10.55,30.18
98689.3649486,437.0,0.86,0.18,-0.06,-2.32,15.85,34.45
98689.3668764,438.0,0.87,0.17,-0.07,-2.07,21.34,38.35
98689.3751604,439.0,0.9,0.15,-0.08,-1.59,25.61,41.46
98689.3759172,440.0,0.93,0.16,-0.07,-0.98,27.8,44.21
98689.381778,441.0,0.98,0.17,-0.06,-0.55,28.35,46.34
98689.3837083,442.0,1.02,0.15,-0.03,-0.67,26.04,47.8
98689.3917749,443.0,1.03,0.14,-0.02,-0.91,22.56,48.84
98689.3978911,444.0,1.09,0.16,-0.02,-1.71,17.8,49.09
98689.3981151,445.0,1.13,0.17,-0.06,-2.01,8.96,48.9
98689.4078485,446.0,1.13,0.16,-0.06,-3.17,1.59,47.38
98689.408046,447.0,1.11,0.16,-0.05,-4.88,-4.45,44.63
98689.4141229,448.0,1.11,0.16,-0.07,-7.07,-10.06,40.3
98689.4158139,449.0,1.12,0.16,-0.1,-8.41,-15.12,35.49
98689.4240392,450.0,1.11,0.14,-0.09,-9.51,-19.76,29.15
98689.4242487,451.0,1.1,0.14,-0.08,-10.67,-22.38,22.68
98689.4302678,452.0,1.08,0.15,-0.09,-11.95,-24.21,15.06
98689.4402244,453.0,1.05,0.05,-0.09,-12.56,-22.56,7.01
98689.4404444,454.0,1.01,0.08,-0.1,-13.35,-18.9,-1.83
98689.4406558,455.0,0.99,0.09,-0.11,-13.05,-13.29,-10.85
98689.4474407,456.0,0.96,0.1,-0.12,-12.26,-6.71,-20.0
98689.4562568,457.0,0.94,0.13,-0.13,-11.4,0.67,-28.66
98689.4564822,458.0,0.94,0.17,-0.14,-10.37,8.05,-36.4
98689.4625083,459.0,0.94,0.19,-0.13,-8.78,14.7,-43.54
98689.4643743,460.0,0.97,0.21,-0.11,-7.56,19.39,-49.45
98689.4712345,461.0,0.99,0.23,-0.09,-6.71,21.46,-53.72
98689.4717884,462.0,1.01,0.25,-0.08,-5.73,20.98,-56.71
98689.4763984,463.0,1.02,0.24,-0.09,-4.94,18.78,-58.35
98689.4851341,464.0,1.05,0.23,-0.06,-4.09,16.16,-59.02
98689.4857498,465.0,1.03,0.26,-0.07,-3.84,12.32,-59.45
98689.4906188,466.0,1.03,0.24,-0.07,-2.93,7.87,-59.51
98689.4944644,467.0,1.0,0.24,-0.08,-2.26,4.94,-58.72
98689.5017403,468.0,1.0,0.22,-0.06,-2.2,3.17,-57.38
98689.5065919,469.0,1.01,0.21,-0.05,-2.26,-1.59,-55.85
98689.5071946,470.0,0.96,0.2,-0.01,-2.32,-2.93,-53.84
98689.5177881,471.0,0.94,0.22,-0.02,-2.44,-3.6,-51.46
98689.5179948,472.0,0.95,0.21,-0.05,-2.62,-4.82,-48.48
98689.5228882,473.0,0.94,0.21,-0.02,-2.38,-5.98,-44.76
98689.5247505,474.0,0.96,0.23,-0.03,-2.8,-6.52,-40.18
98689.5332937,475.0,0.97,0.24,-0.0,-3.29,-9.39,-35.12
98689.533505,476.0,1.0,0.23,-0.0,-4.02,-11.65,-29.09
98689.5385263,477.0,0.98,0.23,0.0,-4.63,-15.3,-22.99
98689.5426862,478.0,0.95,0.22,-0.0,-5.0,-18.35,-16.4
98689.5496818,479.0,0.94,0.2,0.01,-5.67,-20.55,-10.0
98689.5547245,480.0,0.94,0.18,-0.01,-5.91,-20.67,-3.11
98689.5558933,481.0,0.93,0.16,-0.08,-5.0,-20.73,3.6
98689.5654872,482.0,0.91,0.16,-0.05,-4.09,-19.27,9.51
98689.5657015,483.0,0.87,0.18,-0.1,-2.44,-14.51,14.82
98689.5706227,484.0,0.83,0.18,-0.11,-1.28,-7.07,20.06
98689.5742553,485.0,0.81,0.17,-0.08,-0.85,0.67,24.39
98689.581696,486.0,0.82,0.16,-0.07,-0.73,9.51,29.02
98689.5818941,487.0,0.82,0.15,-0.06,-0.91,17.87,33.48
98689.5870446,488.0,0.82,0.14,-0.07,-0.91,25.43,37.2
98689.5879572,489.0,0.84,0.14,-0.06,-0.79,33.48,41.52
98689.5976924,490.0,0.84,0.12,-0.03,-1.04,38.29,44.94
98689.6028095,491.0,0.93,0.15,-0.05,-0.85,41.59,48.11
98689.6030451,492.0,0.99,0.17,-0.05,-0.12,39.88,51.4
98689.6131179,493.0,1.04,0.2,-0.09,1.46,35.98,54.21
98689.6133188,494.0,1.09,0.2,-0.05,2.13,30.79,55.67
98689.6182829,495.0,1.08,0.18,-0.09,1.4,21.83,56.52
98689.6222755,496.0,1.13,0.17,-0.06,-0.24,14.09,56.34
98689.6296256,497.0,1.14,0.19,-0.03,-2.62,7.07,54.94
98689.629822,498.0,1.1,0.15,-0.06,-4.57,-0.49,51.46
98689.6349264,499.0,1.11,0.18,-0.08,-6.46,-7.38,47.56
98689.6452616,500.0,1.11,0.18,-0.09,-7.62,-12.38,42.13
98689.6455461,501.0,1.11,0.2,-0.11,-8.6,-15.91,35.98
98689.6507805,502.0,1.09,0.19,-0.09,-9.15,-18.48,28.9
98689.6510031,503.0,1.07,0.21,-0.08,-10.67,-19.27,21.04
98689.6613416,504.0,1.05,0.18,-0.09,-11.28,-18.6,12.87
98689.6615591,505.0,1.01,0.16,-0.09,-11.95,-15.49,3.78
98689.6667423,506.0,0.96,0.15,-0.1,-12.5,-9.63,-4.76
98689.6771071,507.0,0.96,0.1,-0.1,-12.2,-2.5,-13.05
98689.6773569,508.0,0.97,0.12,-0.1,-11.77,4.39,-20.79
98689.6779285,509.0,0.98,0.15,-0.08,-10.73,9.82,-27.74
98689.6827333,510.0,1.0,0.15,-0.07,-9.45,13.41,-33.78
98689.6881668,511.0,1.0,0.18,-0.06,-8.05,16.22,-38.72
98689.6937077,512.0,0.99,0.23,-0.07,-5.91,18.29,-43.41
98689.6989412,513.0,0.98,0.26,-0.09,-4.45,19.39,-46.71
98689.6993078,514.0,0.98,0.27,-0.07,-2.93,20.24,-49.09
98689.7100356,515.0,0.98,0.26,-0.06,-2.26,21.4,-50.73
98689.7102535,516.0,1.71,0.21,0.26,-2.32,0.3,-46.95
98689.7156835,517.0,0.89,0.21,-0.09,-2.44,-0.24,-47.44
98689.717849,518.0,1.19,0.24,-0.01,-3.66,-0.06,-48.11
98689.7249738,519.0,0.92,0.24,-0.09,-3.84,0.24,-47.93
98689.7303678,520.0,1.05,0.24,-0.05,-4.02,-0.37,-48.05
98689.7308281,521.0,0.94,0.23,-0.04,-4.45,-0.37,-46.4
98689.7416607,522.0,0.88,0.23,-0.08,-4.33,-2.01,-45.06
98689.7418748,523.0,0.93,0.24,-0.07,-4.15,3.29,-43.29
98689.7470216,524.0,0.89,0.24,-0.07,-3.17,0.91,-41.46
98689.7485063,525.0,1.04,0.25,-0.04,-2.56,-2.2,-37.87
98689.7574825,526.0,0.87,0.22,-0.08,-2.26,-0.79,-34.76
98689.7576878,527.0,0.96,0.23,-0.05,-1.89,1.65,-31.22
98689.7631214,528.0,0.94,0.23,-0.04,-2.2,-1.04,-27.07
98689.7659377,529.0,0.92,0.21,-0.03,-2.56,1.28,-22.93
98689.7732465,530.0,0.93,0.21,-0.07,-2.32,1.71,-18.96
98689.7735183,531.0,0.97,0.19,-0.03,-2.32,0.3,-13.17
98689.7800066,532.0,0.92,0.19,-0.03,-2.62,0.43,-8.6
98689.7897289,533.0,0.89,0.2,-0.04,-3.23,-2.26,-3.48
98689.7899339,534.0,0.95,0.19,-0.01,-4.09,-0.67,2.38
98689.7957885,535.0,0.96,0.18,-0.04,-4.09,-1.04,7.99
98689.7959908,536.0,0.92,0.16,-0.08,-3.54,1.34,13.96
98689.7987087,537.0,0.94,0.19,-0.1,-2.2,0.18,19.51
98689.8063839,538.0,0.92,0.22,-0.03,-1.59,1.83,25.85
98689.8118234,539.0,0.93,0.19,-0.0,-2.32,0.73,31.89
98689.8144111,540.0,0.94,0.19,0.0,-3.41,0.55,38.54
98689.8217353,541.0,0.93,0.18,-0.01,-4.27,2.01,44.27
98689.8272128,542.0,0.94,0.17,0.0,-5.49,1.34,49.88
98689.8274221,543.0,0.91,0.18,-0.02,-6.46,2.8,54.39
98689.8377702,544.0,0.99,0.14,-0.0,-7.01,-1.71,58.11
98689.8379794,545.0,0.93,0.15,-0.05,-7.13,-0.49,61.46
98689.8434039,546.0,0.91,0.16,-0.06,-6.89,-0.79,62.93
98689.8436084,547.0,1.01,0.21,-0.06,-5.91,-4.88,63.66
98689.8529364,548.0,1.1,0.21,-0.05,-6.52,4.57,63.41
98689.8531406,549.0,0.97,0.22,-0.1,-7.13,-0.24,61.34
98689.8585724,550.0,1.14,0.23,-0.1,-6.89,0.37,58.6
98689.8620344,551.0,0.98,0.19,-0.14,-6.83,1.22,54.88
98689.8696315,552.0,1.09,0.18,-0.09,-6.65,-0.37,50.61
98689.8749549,553.0,0.99,0.16,-0.11,-6.83,0.91,45.49
98689.8751605,554.0,1.13,0.17,-0.07,-6.71,0.18,40.67
98689.8859557,555.0,0.98,0.14,-0.1,-6.77,0.12,34.45
98689.8861573,556.0,1.11,0.13,-0.03,-7.38,-1.16,27.68
98689.8864115,557.0,1.05,0.13,-0.07,-7.93,0.67,20.49
98689.8928704,558.0,1.09,0.12,-0.05,-8.05,-1.16,13.11
98689.901286,559.0,1.06,0.12,-0.06,-7.8,-0.67,5.79
98689.9014873,560.0,1.06,0.13,-0.06,-7.87,-1.04,-1.89
98689.906951,561.0,1.06,0.15,-0.06,-7.99,-0.43,-9.15
98689.9079995,562.0,1.06,0.15,-0.05,-7.99,0.06,-16.22
98689.9179745,563.0,1.07,0.09,-0.05,-7.68,0.12,-22.56
98689.9181783,564.0,1.06,0.12,-0.05,-7.99,0.0,-29.09
98689.923311,565.0,1.05,0.15,-0.06,-8.05,-0.3,-35.37
98689.926032,566.0,1.03,0.18,-0.06,-7.87,-0.18,-40.43
98689.933594,567.0,1.02,0.21,-0.08,-8.05,-0.37,-45.37
98689.9388302,568.0,1.02,0.24,-0.07,-8.48,-0.73,-49.21
98689.939184,569.0,0.99,0.27,-0.09,-8.6,-0.61,-52.5
98689.9501558,570.0,1.03,0.29,-0.09,-8.54,-1.22,-55.06
98689.9503675,571.0,0.98,0.27,-0.08,-8.29,1.65,-56.71
98689.9557645,572.0,1.21,0.28,0.02,-7.26,-5.24,-56.16
98689.9568382,573.0,0.88,0.29,-0.17,-6.71,0.3,-58.11
98689.9658967,574.0,1.21,0.28,-0.01,-5.55,-1.22,-57.56
98689.9661106,575.0,0.89,0.23,-0.13,-4.45,3.6,-57.44
98689.9716745,576.0,0.99,0.21,-0.0,-3.23,-7.62,-58.41
98689.9812964,577.0,0.88,0.24,-0.11,-2.26,-1.83,-55.24
98689.9815121,578.0,0.87,0.21,-0.1,-1.71,4.63,-52.32
98689.9821697,579.0,0.98,0.22,-0.04,-1.22,2.07,-49.88
98689.9883632,580.0,0.85,0.21,-0.06,-1.28,2.62,-47.13
98689.9979876,581.0,0.95,0.21,-0.01,-1.16,-1.89,-43.11
98689.998198,582.0,0.91,0.22,-0.03,-1.77,0.55,-37.99
98690.0053886,583.0,0.88,0.19,-0.02,-1.89,-2.74,-32.56
98690.007049,584.0,0.86,0.21,-0.02,-2.07,-0.12,-28.23
98690.0152598,585.0,0.86,0.19,-0.02,-2.01,2.01,-22.56
98690.0154713,586.0,1.0,0.2,0.03,-2.07,-4.45,-15.98
98690.0217049,587.0,0.92,0.19,-0.01,-2.07,-0.43,-8.96
98690.0233136,588.0,0.93,0.18,0.01,-2.32,0.12,-2.32
98690.0309034,589.0,0.93,0.17,-0.01,-1.83,-0.98,4.21
98690.0312742,590.0,0.93,0.15,-0.01,-1.65,-0.24,11.34
98690.0367524,591.0,0.93,0.18,-0.03,-1.34,0.61,17.44
98690.0456203,592.0,0.9,0.21,-0.04,-0.98,1.95,23.17
98690.0458154,593.0,0.9,0.18,-0.03,-0.91,4.88,28.84
98690.0514753,594.0,1.05,0.17,0.02,-1.16,0.37,35.24
98690.0543869,595.0,0.89,0.14,-0.03,-1.34,1.83,39.88
98690.0620902,596.0,1.01,0.15,-0.0,-2.07,1.34,44.57
98690.0622903,597.0,0.89,0.15,-0.07,-2.44,2.56,47.8
98690.0677699,598.0,1.0,0.15,-0.04,-2.38,1.52,50.3
98690.0687556,599.0,1.0,0.15,-0.04,-2.5,2.62,52.13
98690.0777436,600.0,1.09,0.17,0.01,-2.99,0.0,53.78
98690.0779375,601.0,0.91,0.17,-0.11,-2.8,-1.95,53.78
98690.0834918,602.0,0.99,0.21,-0.06,-4.21,6.04,53.11
98690.0938278,603.0,1.04,0.21,-0.08,-4.51,-0.43,50.18
98690.0940324,604.0,1.08,0.22,-0.09,-4.76,0.61,47.68
98690.0998423,605.0,1.03,0.2,-0.08,-4.45,-2.56,43.29
98690.1019426,606.0,1.08,0.18,-0.1,-4.45,-2.44,38.35
98690.1106313,607.0,1.08,0.16,-0.1,-4.02,-4.51,32.62
98690.1108346,608.0,1.08,0.19,-0.08,-4.76,-1.71,25.91
98690.1163307,609.0,1.09,0.25,-0.05,-5.73,-1.89,18.66
98690.1165956,610.0,1.05,0.22,-0.04,-7.07,-3.05,10.37
98690.1260393,611.0,1.07,0.19,-0.06,-7.38,-3.78,2.93
98690.1267375,612.0,1.08,0.2,-0.04,-8.35,-6.16,-4.82
98690.1318746,613.0,1.08,0.19,-0.04,-9.09,-7.74,-12.8
98690.1346295,614.0,1.08,0.1,-0.05,-9.15,-8.72,-19.51
98690.1425371,615.0,1.07,0.13,-0.06,-9.15,-9.39,-27.01
98690.1482808,616.0,1.05,0.15,-0.06,-8.78,-10.0,-32.93
98690.1484996,617.0,1.04,0.15,-0.06,-8.35,-9.02,-39.02
98690.1583617,618.0,1.01,0.19,-0.07,-7.8,-7.56,-44.27
98690.1585722,619.0,0.99,0.22,-0.09,-6.71,-6.28,-49.27
98690.1641007,620.0,0.96,0.26,-0.11,-5.24,-3.72,-53.11
98690.1663851,621.0,0.96,0.28,-0.11,-4.15,-1.04,-56.46
98690.1742596,622.0,0.94,0.3,-0.11,-2.8,0.79,-58.66
98690.1798914,623.0,0.94,0.28,-0.12,-1.77,4.94,-59.63
98690.1801067,624.0,0.94,0.28,-0.1,-0.43,8.84,-60.49
98690.1906989,625.0,0.95,0.26,-0.05,0.24,10.3,-60.37
98690.190925,626.0,0.95,0.28,-0.08,1.77,9.88,-59.09
98690.1911306,627.0,0.95,0.24,-0.05,3.29,10.3,-57.07
98690.1982452,628.0,0.93,0.27,-0.04,3.78,8.05,-55.12
98690.2065265,629.0,0.92,0.27,-0.04,4.09,8.17,-52.44
98690.2067282,630.0,0.95,0.24,-0.02,4.21,8.11,-49.02
98690.2124288,631.0,0.95,0.25,-0.02,3.17,8.84,-45.24
98690.2126331,632.0,0.97,0.24,-0.01,2.56,7.68,-40.3
98690.2216802,633.0,0.97,0.22,-0.01,1.89,5.98,-35.55
98690.2274606,634.0,0.94,0.23,-0.01,1.4,4.02,-30.06
98690.2276593,635.0,0.94,0.23,-0.01,0.79,2.68,-24.02
98690.230853,636.0,0.94,0.2,0.01,0.18,1.52,-17.74
98690.2389988,637.0,0.94,0.2,-0.02,-0.49,0.67,-10.98
98690.2447666,638.0,0.94,0.21,-0.04,-0.18,-0.24,-3.84
98690.2449713,639.0,0.93,0.22,-0.07,1.16,-0.85,2.87
98690.2545428,640.0,0.91,0.26,-0.02,1.28,-0.43,9.33
98690.254737,641.0,0.89,0.22,-0.03,0.49,1.52,16.34
98690.2602652,642.0,0.9,0.19,-0.0,-0.12,3.6,22.2
98690.2612691,643.0,0.92,0.16,0.02,-1.95,5.06,28.9
98690.2704722,644.0,0.92,0.13,0.04,-3.84,5.61,35.37
98690.2706675,645.0,1.07,0.15,0.09,-5.43,2.38,43.05
98690.2763707,646.0,0.96,0.14,-0.02,-6.46,-0.37,49.7
98690.2863303,647.0,1.13,0.17,0.02,-7.38,-0.67,55.49
98690.2865315,648.0,0.88,0.16,0.01,-8.41,2.13,60.98
98690.2870848,649.0,1.15,0.23,-0.01,-8.9,0.61,65.79
98690.2923924,650.0,0.92,0.19,-0.08,-8.54,-1.83,67.32
98690.3027932,651.0,1.12,0.23,-0.06,-7.32,-9.7,70.06
98690.3029973,652.0,0.94,0.27,-0.06,-8.6,2.87,70.79
98690.3086488,653.0,0.87,0.2,-0.09,-9.57,3.23,67.26
98690.3099951,654.0,1.02,0.25,-0.1,-9.15,-2.99,66.59
98690.3182087,655.0,1.08,0.25,-0.07,-9.7,1.46,64.15
98690.318411,656.0,0.94,0.23,-0.18,-9.39,-3.11,59.45
98690.3241687,657.0,0.91,0.2,-0.16,-9.57,5.12,53.11
98690.333493,658.0,1.33,0.27,-0.1,-9.33,-0.43,48.9
98690.3336991,659.0,0.93,0.19,-0.19,-8.9,-0.91,41.65
98690.3345352,660.0,1.21,0.22,-0.09,-9.09,-2.07,34.82
98690.3407674,661.0,0.98,0.2,-0.14,-9.51,0.91,27.62
98690.3498405,662.0,1.09,0.2,-0.07,-9.7,-0.06,20.24
98690.3500415,663.0,1.04,0.19,-0.06,-10.3,1.04,14.57
98690.3557859,664.0,0.98,0.17,-0.1,-9.76,-0.49,7.93
98690.3560562,665.0,1.03,0.17,-0.03,-9.63,0.85,2.5
98690.366461,666.0,1.04,0.19,-0.03,-8.96,-1.22,-2.26
98690.3666662,667.0,1.02,0.2,-0.04,-8.17,-0.43,-6.16
98690.3723178,668.0,1.01,0.19,-0.05,-7.07,0.37,-9.76
98690.381823,669.0,1.02,0.2,-0.03,-6.59,-0.37,-12.93
98690.3820369,670.0,1.01,0.17,-0.04,-6.28,0.12,-15.37
98690.3881573,671.0,1.01,0.18,-0.04,-5.49,-0.06,-17.68
98690.3883724,672.0,1.01,0.17,-0.04,-4.51,0.12,-20.24
98690.3987723,673.0,1.01,0.18,-0.05,-3.96,0.37,-22.13
98690.3989796,674.0,1.01,0.18,-0.06,-3.54,0.37,-23.9
98690.3991882,675.0,1.0,0.21,-0.06,-3.48,0.49,-25.43
98690.4055213,676.0,0.98,0.25,-0.06,-3.41,0.49,-26.83
98690.4151171,677.0,0.98,0.26,-0.07,-3.41,0.3,-27.44
98690.4153213,678.0,0.98,0.26,-0.04,-3.96,1.59,-27.99
98690.4214103,679.0,1.0,0.25,-0.03,-4.09,-1.89,-28.17
98690.4230894,680.0,0.92,0.24,-0.07,-4.33,-0.79,-28.29
98690.4308498,681.0,0.97,0.23,-0.06,-4.45,-1.46,-27.38
98690.4310706,682.0,0.94,0.23,-0.08,-4.09,2.13,-26.77
98690.4369269,683.0,0.98,0.21,-0.06,-3.54,0.67,-25.49
98690.4407821,684.0,0.99,0.21,-0.01,-3.23,0.85,-23.41
98690.4467192,685.0,0.98,0.19,-0.05,-2.99,0.73,-21.95
98690.4528142,686.0,1.06,0.2,-0.02,-2.38,-0.43,-19.15
98690.4542321,687.0,1.01,0.18,-0.01,-2.13,-1.95,-16.46
98690.4548849,688.0,0.96,0.17,-0.03,-2.38,-2.26,-13.78
98690.4628614,689.0,0.97,0.18,-0.02,-2.26,0.0,-10.73
98690.4691394,690.0,0.93,0.18,-0.05,-2.74,0.55,-7.87
98690.4705564,691.0,0.97,0.19,-0.06,-2.07,2.56,-3.96
98690.4790132,692.0,0.96,0.18,-0.05,-2.2,0.98,0.0
98690.4792385,693.0,0.97,0.18,-0.04,-1.89,0.85,4.39
98690.4851967,694.0,0.95,0.18,-0.06,-2.38,0.61,8.48
98690.4945638,695.0,0.96,0.19,-0.07,-1.89,0.73,11.95
98690.4947646,696.0,0.95,0.19,-0.08,-2.2,0.85,15.43
98690.4952386,697.0,0.95,0.21,-0.06,-2.07,0.79,18.84
98690.5008803,698.0,0.95,0.21,-0.05,-2.8,0.67,21.83
98690.5105553,699.0,0.96,0.2,-0.05,-4.02,0.06,24.45
98690.5107672,700.0,0.97,0.18,-0.05,-4.57,0.18,26.83
98690.5169005,701.0,0.98,0.16,-0.05,-5.67,0.06,28.48
98690.5178994,702.0,0.98,0.16,-0.06,-6.34,-0.12,29.63
98690.5264382,703.0,1.0,0.16,-0.05,-6.89,-1.16,30.49
98690.5271893,704.0,0.98,0.15,-0.06,-7.44,-0.85,31.16
98690.5326146,705.0,0.98,0.16,-0.06,-7.68,-1.1,31.59
98690.5418004,706.0,0.98,0.15,-0.06,-7.68,0.37,32.44
98690.5419995,707.0,0.97,0.16,-0.07,-7.2,1.34,32.93
98690.5425603,708.0,1.0,0.17,-0.06,-6.4,1.65,33.41
98690.5490175,709.0,0.99,0.18,-0.06,-5.18,1.34,33.72
98690.5577811,710.0,0.99,0.18,-0.04,-3.9,0.3,33.84
98690.5579998,711.0,0.99,0.16,-0.04,-3.66,1.4,34.33
98690.5642233,712.0,1.0,0.17,-0.07,-2.56,1.59,34.63
98690.5644223,713.0,1.02,0.15,-0.04,-1.89,-0.73,34.7
98690.5739557,714.0,1.05,0.16,-0.01,-2.01,0.43,35.12
98690.5747577,715.0,0.96,0.16,-0.04,-2.13,-0.37,35.06
98690.580425,716.0,1.02,0.17,-0.03,-2.38,-0.12,34.7
98690.5898128,717.0,0.99,0.16,-0.04,-2.87,0.98,34.09
98690.59001,718.0,1.02,0.17,-0.06,-2.68,0.98,33.66
98690.5960632,719.0,0.97,0.19,-0.06,-2.62,0.06,32.68
98690.5964101,720.0,1.02,0.15,-0.02,-2.8,2.38,31.83
98690.6063099,721.0,1.04,0.17,-0.03,-3.35,-0.18,30.91
98690.6065123,722.0,1.01,0.17,-0.05,-3.11,-0.67,30.3
98690.6126445,723.0,0.98,0.16,-0.07,-2.99,1.16,29.27
98690.6144159,724.0,1.0,0.15,-0.06,-2.44,0.67,27.87
98690.6224886,725.0,1.0,0.15,-0.06,-1.95,0.73,26.89
98690.6226871,726.0,1.02,0.14,-0.05,-1.34,1.04,25.3
98690.6287577,727.0,1.0,0.15,-0.04,-1.46,1.59,24.15
98690.6304319,728.0,1.0,0.15,-0.06,-1.59,1.16,22.93
98690.6382953,729.0,1.0,0.13,-0.05,-1.16,1.52,22.07
98690.6445697,730.0,1.0,0.13,-0.05,-1.52,1.28,21.34
98690.6447665,731.0,1.0,0.12,-0.06,-1.59,1.1,21.1
98690.6545223,732.0,1.0,0.13,-0.04,-1.22,0.37,21.16
98690.6547308,733.0,0.99,0.13,-0.04,-1.83,0.43,21.65
98690.6609813,734.0,1.0,0.13,-0.04,-2.38,0.24,22.2
98690.6622516,735.0,0.99,0.13,-0.06,-2.5,0.06,22.5
98690.6706671,736.0,0.99,0.13,-0.06,-2.44,0.49,23.17
98690.6708671,737.0,0.99,0.13,-0.06,-2.99,0.3,23.48
98690.6771375,738.0,0.99,0.11,-0.06,-3.17,-0.06,23.84
98690.6773452,739.0,0.99,0.1,-0.05,-3.6,0.12,23.84
98690.687444,740.0,1.0,0.09,-0.06,-3.84,0.12,24.27
98690.6876452,741.0,1.0,0.09,-0.05,-3.41,0.06,24.39
98690.6938846,742.0,1.0,0.07,-0.05,-3.66,0.0,24.27
98690.6959912,743.0,1.0,0.06,-0.04,-3.41,0.67,24.51
98690.7039106,744.0,0.99,0.05,-0.05,-2.93,0.55,24.39
98690.704111,745.0,1.0,0.05,-0.04,-2.8,0.49,23.96
98690.7103516,746.0,1.02,0.04,-0.04,-2.68,0.37,24.02
98690.7214242,747.0,0.99,0.06,-0.04,-1.95,0.61,24.02
98690.7216217,748.0,1.0,0.09,-0.04,-1.71,0.85,23.6
98690.7218155,749.0,0.99,0.08,-0.06,-2.13,2.01,23.78
98690.7284704,750.0,0.99,0.07,-0.06,-2.13,0.67,23.72
98690.7388568,751.0,1.02,0.08,-0.06,-2.01,0.67,24.33
98690.7390608,752.0,0.98,0.1,-0.09,-1.71,0.49,24.45
98690.7392575,753.0,1.01,0.11,-0.06,-1.83,0.06,25.37
98690.7456901,754.0,0.98,0.11,-0.09,-1.04,0.18,25.24
98690.7476995,755.0,1.01,0.11,-0.06,-0.91,0.12,25.24
98690.7560241,756.0,0.97,0.11,-0.11,-0.18,1.16,24.82
98690.7567769,757.0,1.04,0.1,-0.05,0.55,-0.91,24.57
98690.7628826,758.0,1.02,0.12,-0.06,0.85,0.24,25.18
98690.7641962,759.0,0.97,0.11,-0.07,0.98,-0.12,25.3
98690.7729742,760.0,0.96,0.12,-0.04,0.49,2.32,25.61
98690.7796366,761.0,1.01,0.1,-0.04,0.43,1.71,26.1
98690.7810121,762.0,0.99,0.08,-0.05,1.1,0.79,26.89
98690.7900477,763.0,1.0,0.09,-0.04,1.59,1.65,27.2
98690.7902408,764.0,1.0,0.08,-0.04,1.95,1.4,26.89
98690.790437,765.0,0.99,0.07,-0.04,2.93,0.55,26.83
98690.7966342,766.0,1.03,0.08,-0.01,3.66,0.49,25.98
98690.8067332,767.0,0.99,0.07,-0.05,4.09,0.91,26.16
98690.8069716,768.0,1.03,0.05,-0.05,4.51,0.61,25.43
98690.8134806,769.0,1.0,0.03,-0.07,4.82,0.49,24.21
98690.8136773,770.0,1.01,0.04,-0.04,4.45,1.34,22.8
98690.8236666,771.0,1.08,0.04,-0.01,3.23,-0.73,21.59
98690.8238747,772.0,1.14,0.04,-0.0,1.46,-7.32,20.0
98690.8301704,773.0,1.18,0.03,-0.01,0.24,-16.59,18.96
98690.8315327,774.0,1.18,0.01,0.0,-1.1,-27.32,17.32
98690.8406696,775.0,1.14,0.02,-0.02,-2.13,-35.91,16.1
98690.8409024,776.0,1.01,0.04,-0.08,-3.48,-34.7,14.15
98690.8470528,777.0,0.98,0.04,-0.09,-3.96,-31.46,11.52
98690.8485427,778.0,0.94,0.05,-0.11,-3.78,-26.71,9.27
98690.8580173,779.0,0.91,0.07,-0.12,-3.11,-20.0,6.52
98690.8582202,780.0,0.9,0.06,-0.12,-2.26,-11.77,3.78
98690.864372,781.0,0.9,0.06,-0.12,-0.85,-4.02,0.79
98690.8657674,782.0,0.91,0.05,-0.1,-0.55,3.48,-2.5
98690.8748936,783.0,0.91,0.04,-0.08,-0.55,10.49,-5.91
98690.8751157,784.0,0.93,0.03,-0.06,-1.65,17.07,-9.15
98690.8810974,785.0,0.95,0.03,-0.1,-1.83,21.83,-12.26
98690.8822943,786.0,0.96,0.02,-0.08,-1.77,26.16,-14.88
98690.891088,787.0,0.97,0.03,-0.09,-1.89,29.94,-17.74
98690.8912942,788.0,1.04,0.03,-0.06,-1.95,33.41,-19.76
98690.8976835,789.0,1.08,0.05,-0.04,-1.77,30.24,-20.79
98690.9077888,790.0,1.03,0.04,-0.05,-1.59,30.06,-23.11
98690.908,791.0,1.01,0.03,-0.05,-1.95,30.0,-24.76
98690.9082038,792.0,1.44,-0.04,0.2,-2.5,-19.27,-22.68
98690.9155273,793.0,0.94,0.1,-0.05,-2.74,7.32,-20.73
98690.924529,794.0,0.77,0.03,-0.15,-4.7,-0.67,-22.99
98690.9247693,795.0,1.04,0.02,-0.04,-5.43,-1.4,-25.73
98690.9249733,796.0,1.08,0.04,-0.07,-6.59,1.28,-27.62
98690.9317334,797.0,1.05,0.04,-0.06,-7.38,-0.55,-29.21
98690.9414611,798.0,1.05,0.06,-0.05,-7.5,-0.43,-30.37
98690.9416691,799.0,1.01,0.07,-0.06,-7.32,-0.18,-31.46
98690.9436652,800.0,1.01,0.08,-0.06,-6.95,-0.12,-32.99
98690.9532169,801.0,1.01,0.08,-0.05,-6.4,-0.37,-34.51
98690.9534236,802.0,1.01,0.08,-0.05,-5.79,0.06,-35.85
98690.9597542,803.0,1.01,0.07,-0.05,-5.49,-0.24,-37.13
98690.96116,804.0,1.01,0.06,-0.03,-5.24,-0.12,-38.66
98690.970449,805.0,1.02,0.06,-0.04,-5.12,0.06,-39.7
98690.97067,806.0,1.01,0.07,-0.05,-5.18,-0.49,-41.04
98690.9768167,807.0,1.01,0.08,-0.06,-5.55,-0.43,-41.59
98690.9772009,808.0,1.0,0.09,-0.06,-6.16,-0.06,-42.13
98690.988638,809.0,1.01,0.1,-0.06,-6.59,-0.06,-43.05
98690.9888613,810.0,1.0,0.11,-0.07,-7.56,-0.18,-43.29
98690.9954312,811.0,1.0,0.13,-0.07,-7.8,-0.43,-43.11
98690.9971284,812.0,0.99,0.14,-0.08,-8.48,-0.37,-42.68
98691.0050919,813.0,0.98,0.14,-0.07,-8.29,-0.24,-42.32
98691.0053033,814.0,0.99,0.15,-0.06,-8.78,0.0,-41.28
98691.0149143,815.0,0.98,0.17,-0.06,-8.11,0.0,-39.7
98691.0151216,816.0,0.99,0.19,-0.08,-8.35,-0.18,-37.74
98691.020565,817.0,0.98,0.19,-0.06,-8.48,-0.3,-35.3
98691.0226368,818.0,0.96,0.19,-0.05,-8.41,-2.13,-32.13
98691.0304,819.0,0.95,0.18,-0.06,-8.35,-0.91,-28.54
98691.030624,820.0,0.92,0.17,-0.07,-8.48,-0.79,-25.0
98691.0367495,821.0,0.95,0.17,-0.05,-7.68,-2.13,-21.1
98691.0455104,822.0,0.94,0.15,-0.08,-6.89,-0.73,-15.91
98691.0457179,823.0,0.99,0.14,-0.06,-6.04,-2.2,-10.98
98691.0510323,824.0,1.01,0.13,-0.02,-4.94,-5.3,-4.94
98691.0524297,825.0,1.03,0.12,0.01,-4.39,-10.24,1.04
98691.0601783,826.0,1.02,0.11,0.01,-4.33,-14.88,7.38
98691.0610938,827.0,1.0,0.11,0.02,-3.72,-18.35,12.93
98691.0658467,828.0,0.95,0.1,-0.01,-3.29,-17.26,17.93
98691.0742624,829.0,0.94,0.1,-0.01,-3.05,-16.34,21.83
98691.0749974,830.0,0.94,0.12,-0.04,-2.26,-14.21,25.55
98691.080014,831.0,0.9,0.16,-0.09,-1.1,-10.06,28.66
98691.0888441,832.0,0.88,0.15,-0.09,-0.3,-4.76,31.46
98691.089049,833.0,0.88,0.14,-0.09,0.55,1.16,33.84
98691.094699,834.0,0.9,0.13,-0.08,1.34,6.16,35.43
98691.1034248,835.0,0.92,0.11,-0.07,2.13,10.61,37.07
98691.1036291,836.0,0.95,0.09,-0.06,3.35,13.48,38.17
98691.1044886,837.0,0.99,0.08,-0.05,4.21,14.15,38.66
98691.1092996,838.0,1.02,0.08,-0.04,4.94,13.66,38.72
98691.1182204,839.0,1.05,0.09,-0.03,4.45,11.52,38.23
98691.1184266,840.0,1.03,0.07,-0.05,3.48,10.12,36.89
98691.1237076,841.0,1.04,0.05,-0.07,2.13,9.09,34.51
98691.126037,842.0,1.05,0.05,-0.07,0.55,8.72,30.85
98691.134192,843.0,1.06,0.04,-0.08,-0.73,7.07,27.2
98691.1394789,844.0,1.07,0.04,-0.07,-2.38,5.06,22.44
98691.1396803,845.0,1.07,0.05,-0.08,-3.96,4.27,17.8
98691.150389,846.0,1.06,0.05,-0.06,-5.98,2.44,12.87
98691.1505881,847.0,1.07,0.06,-0.06,-6.83,1.71,7.68
98691.1557754,848.0,1.06,0.06,-0.06,-8.05,1.22,2.2
98691.1574177,849.0,1.05,0.07,-0.06,-9.09,1.4,-4.09
98691.1664256,850.0,1.04,0.08,-0.06,-9.63,2.62,-9.21
98691.1666245,851.0,1.03,0.05,-0.06,-9.94,4.39,-14.45
98691.1720679,852.0,1.19,0.07,0.01,-10.18,0.79,-18.35
98691.1810898,853.0,0.99,0.08,-0.09,-9.88,1.16,-22.62
98691.1813482,854.0,1.06,0.06,-0.04,-9.76,-1.22,-26.34
98691.1867564,855.0,1.02,0.08,-0.07,-9.45,0.61,-29.33
98691.1870052,856.0,1.03,0.08,-0.05,-9.21,-0.06,-33.11
98691.1976309,857.0,1.03,0.09,-0.05,-8.66,0.0,-35.55
98691.1978479,858.0,1.02,0.12,-0.06,-8.41,0.12,-38.54
98691.2032362,859.0,1.02,0.13,-0.06,-7.87,-0.12,-40.73
98691.2039448,860.0,1.01,0.15,-0.07,-6.95,-0.37,-42.56
98691.2135823,861.0,1.01,0.16,-0.07,-6.4,-0.06,-44.21
98691.2139975,862.0,1.01,0.16,-0.06,-5.85,-0.12,-45.12
98691.2190444,863.0,1.01,0.17,-0.04,-5.43,-0.3,-45.55
98691.2225522,864.0,1.02,0.16,-0.06,-5.37,-0.85,-45.43
98691.2299479,865.0,0.96,0.18,-0.09,-4.45,0.91,-44.7
98691.2355353,866.0,1.01,0.18,-0.05,-3.78,-0.49,-44.09
98691.2357723,867.0,0.97,0.18,-0.08,-2.99,1.1,-42.87
98691.2454424,868.0,0.92,0.17,-0.07,-2.5,-1.4,-41.34
98691.245653,869.0,0.99,0.18,-0.05,-1.83,-0.67,-39.15
98691.2509327,870.0,0.95,0.16,-0.08,-1.95,1.1,-36.34
98691.2528986,871.0,1.0,0.14,-0.03,-1.28,1.83,-34.33
98691.2618331,872.0,0.94,0.15,-0.04,-1.1,2.68,-31.22
98691.2620374,873.0,0.97,0.15,-0.01,-0.91,0.61,-28.41
98691.2674681,874.0,0.99,0.16,0.0,-1.28,-0.12,-24.21
98691.277434,875.0,0.93,0.15,-0.06,-1.22,1.89,-20.18
98691.2776469,876.0,0.95,0.14,-0.03,-1.59,2.87,-16.22
98691.278069,877.0,0.98,0.14,-0.0,-2.2,-0.79,-10.98
98691.2830717,878.0,0.94,0.14,-0.02,-2.8,0.67,-5.3
98691.2931582,879.0,0.94,0.14,-0.02,-3.05,-0.37,0.06
98691.2933845,880.0,0.94,0.13,-0.03,-3.17,0.55,5.91
98691.2996255,881.0,0.95,0.14,-0.03,-2.99,0.67,11.65
98691.2998286,882.0,0.94,0.14,-0.05,-2.32,0.67,16.89
98691.3097623,883.0,0.94,0.19,-0.04,-1.65,0.91,21.95
98691.3099598,884.0,0.94,0.18,-0.05,-1.46,1.1,27.5
98691.3153359,885.0,0.95,0.16,-0.04,-0.85,0.61,32.5
98691.3184813,886.0,0.95,0.15,-0.03,-0.73,0.73,36.71
98691.3257464,887.0,0.96,0.13,-0.04,-0.98,0.61,40.85
98691.3259454,888.0,0.97,0.12,-0.04,-1.16,0.98,44.09
98691.3317808,889.0,0.98,0.12,-0.04,-1.04,0.73,46.83
98691.3363722,890.0,0.97,0.1,-0.05,-0.98,0.79,48.72
98691.3419298,891.0,1.0,0.09,-0.04,-0.79,0.06,49.39
98691.3477921,892.0,1.0,0.09,-0.06,-0.79,0.73,49.27
98691.3479892,893.0,1.0,0.09,-0.07,-0.67,0.3,47.74
98691.3577666,894.0,1.04,0.1,-0.07,0.06,-1.22,45.61
98691.3579763,895.0,1.01,0.08,-0.07,-1.04,0.37,42.8
98691.3634355,896.0,1.04,0.06,-0.06,-2.13,-0.12,38.96
98691.3661698,897.0,1.04,0.06,-0.08,-3.23,-0.12,34.09
98691.3735604,898.0,1.07,0.05,-0.05,-3.72,-1.4,29.27
98691.3737631,899.0,1.06,0.04,-0.06,-4.39,-1.22,23.48
98691.3792691,900.0,1.06,0.04,-0.08,-4.82,-1.28,17.87
98691.3898491,901.0,1.09,0.1,-0.06,-5.61,0.55,12.01
98691.3900502,902.0,1.04,0.11,-0.05,-5.91,2.01,5.73
98691.3905736,903.0,1.08,0.1,-0.04,-6.34,1.34,0.12
98691.3955995,904.0,1.05,0.09,-0.05,-6.59,0.43,-4.82
98691.3986473,905.0,1.04,0.08,-0.05,-6.71,-0.43,-9.94
98691.4060497,906.0,1.04,0.08,-0.05,-6.65,0.67,-14.33
98691.4117986,907.0,1.02,0.08,-0.07,-6.71,0.91,-18.66
98691.4121477,908.0,1.05,0.09,-0.03,-6.28,-0.18,-21.71
98691.4217106,909.0,1.02,0.11,-0.05,-6.65,0.24,-25.12
98691.4222625,910.0,1.03,0.12,-0.04,-6.34,-0.24,-28.05
98691.4274921,911.0,1.02,0.14,-0.05,-6.28,-0.24,-30.73
98691.4305253,912.0,1.01,0.14,-0.05,-6.52,-0.18,-32.87
98691.4379656,913.0,1.0,0.13,-0.05,-6.4,-0.18,-34.51
98691.4436337,914.0,1.01,0.12,-0.05,-5.85,-0.61,-35.37
98691.443848,915.0,1.0,0.12,-0.05,-5.79,-0.3,-36.22
98691.4532908,916.0,1.0,0.13,-0.05,-4.82,0.06,-37.01
98691.4535193,917.0,1.0,0.15,-0.05,-4.09,0.43,-37.07
98691.4588708,918.0,0.99,0.15,-0.05,-3.23,0.43,-36.83
98691.4627151,919.0,0.98,0.18,-0.05,-2.26,0.67,-36.34
98691.4703513,920.0,0.98,0.19,-0.06,-1.59,0.67,-35.12
98691.4705567,921.0,0.97,0.2,-0.06,-0.67,0.85,-33.54
98691.4762057,922.0,0.97,0.19,-0.05,-0.3,0.67,-32.01
98691.4858164,923.0,0.96,0.19,-0.07,0.12,1.1,-29.57
98691.4860201,924.0,0.96,0.18,-0.06,-0.18,1.71,-27.26
98691.4863763,925.0,0.99,0.15,-0.04,-0.37,-0.18,-24.27
98691.4917032,926.0,0.96,0.15,-0.05,-0.67,0.43,-20.85
98691.4971261,927.0,0.96,0.15,-0.05,-1.1,0.61,-17.68
98691.5028978,928.0,0.97,0.15,-0.03,-1.71,-0.18,-13.41
98691.5083562,929.0,0.96,0.15,-0.04,-2.01,-0.12,-9.33
98691.5085665,930.0,0.96,0.15,-0.04,-2.38,-0.67,-4.82
98691.5182828,931.0,0.95,0.15,-0.05,-2.32,0.67,-0.06
98691.5185006,932.0,0.95,0.14,-0.05,-2.32,0.3,4.82
98691.5239865,933.0,0.95,0.14,-0.07,-1.28,0.85,9.82
98691.5258028,934.0,0.94,0.19,-0.04,-1.1,1.16,14.76
98691.5348729,935.0,0.94,0.17,-0.04,-1.1,1.04,19.63
98691.5350754,936.0,0.94,0.16,-0.04,-1.1,0.98,24.57
98691.5407212,937.0,0.95,0.16,-0.04,-1.1,0.98,29.27
98691.5517839,938.0,0.95,0.15,-0.04,-1.71,1.16,33.41
98691.5519884,939.0,0.96,0.15,-0.04,-1.83,1.04,37.56
98691.5521883,940.0,0.96,0.15,-0.06,-2.07,0.85,40.73
98691.5578459,941.0,0.98,0.14,-0.06,-2.07,0.73,43.05
98691.5597655,942.0,0.98,0.14,-0.07,-2.13,0.67,44.02
98691.5684331,943.0,1.0,0.13,-0.06,-2.07,0.43,44.02
98691.5740429,944.0,1.01,0.11,-0.06,-2.38,0.61,42.32
98691.5754816,945.0,1.02,0.11,-0.07,-3.05,0.24,39.7
98691.5847649,946.0,1.04,0.09,-0.07,-4.15,0.12,36.95
98691.5849645,947.0,1.04,0.08,-0.07,-5.79,-0.3,32.93
98691.5905621,948.0,1.05,0.06,-0.07,-7.07,-0.55,28.66
98691.5919523,949.0,1.06,0.05,-0.07,-8.84,-1.1,23.66
98691.6004511,950.0,1.05,0.05,-0.06,-10.12,-0.73,17.62
98691.6006605,951.0,1.08,0.05,-0.06,-11.1,-1.77,12.01
98691.6061587,952.0,1.1,0.06,-0.04,-12.01,-4.57,6.52
98691.6154703,953.0,1.09,0.07,-0.04,-12.44,-6.95,0.73
98691.6156799,954.0,1.07,0.07,-0.05,-12.5,-7.8,-5.06
98691.6161425,955.0,1.05,0.07,-0.05,-12.38,-7.5,-10.61
98691.6211821,956.0,1.02,0.07,-0.06,-11.89,-5.55,-16.1
98691.6304543,957.0,1.0,0.08,-0.08,-11.46,-2.44,-21.4
98691.6306679,958.0,0.98,0.09,-0.08,-11.1,1.83,-26.59
98691.6365175,959.0,0.98,0.1,-0.08,-10.79,5.67,-31.22
98691.6401994,960.0,0.99,0.11,-0.07,-9.82,8.96,-35.3
98691.6460652,961.0,0.99,0.14,-0.09,-8.84,11.52,-38.6
98691.6518773,962.0,1.4,0.19,0.05,-7.32,4.27,-38.17
98691.6520938,963.0,0.93,0.19,-0.13,-5.79,-0.37,-40.37
98691.6624565,964.0,1.12,0.2,-0.05,-4.94,-1.28,-41.52
98691.6626607,965.0,0.97,0.18,-0.09,-4.7,-0.37,-42.13
98691.6684282,966.0,0.97,0.16,-0.08,-4.57,1.65,-42.68
98691.6688045,967.0,0.99,0.16,-0.08,-3.72,1.77,-42.87
98691.6782078,968.0,1.08,0.2,-0.03,-2.8,2.62,-42.01
98691.6789142,969.0,0.88,0.19,-0.13,-1.71,2.5,-41.71
98691.683996,970.0,1.03,0.2,-0.02,-1.1,-1.89,-40.37
98691.69412,971.0,0.96,0.19,-0.05,-0.98,1.89,-38.78
98691.6943488,972.0,1.04,0.18,-0.02,-0.73,-0.12,-36.52
98691.6999781,973.0,0.95,0.16,-0.05,-0.85,0.3,-34.39
98691.7001956,974.0,0.91,0.16,-0.05,0.0,-0.79,-32.07
98691.7105334,975.0,0.92,0.16,-0.06,0.24,1.22,-29.39
98691.710738,976.0,0.96,0.17,-0.02,0.55,1.16,-26.22
98691.7171141,977.0,0.95,0.15,-0.02,0.3,1.95,-22.62
98691.718662,978.0,0.95,0.15,-0.01,0.55,0.18,-19.15
98691.7271666,979.0,0.97,0.15,0.01,-0.12,1.16,-14.88
98691.7273706,980.0,0.94,0.14,0.01,-0.49,2.13,-10.12
98691.7335031,981.0,0.96,0.14,0.0,-0.91,0.0,-5.06
98691.7349112,982.0,0.95,0.14,-0.01,-0.73,1.16,-0.06
98691.743148,983.0,0.94,0.14,-0.03,-0.24,1.16,5.24
98691.7438049,984.0,0.95,0.17,-0.04,0.43,1.34,10.49
98691.7495092,985.0,0.94,0.19,-0.04,0.91,1.89,15.55
98691.7512335,986.0,0.94,0.16,-0.03,0.67,1.52,20.73
98691.7590945,987.0,0.95,0.16,-0.02,0.85,1.46,26.22
98691.7653549,988.0,0.95,0.14,-0.02,0.67,1.83,31.16
98691.7666493,989.0,0.95,0.12,0.0,0.0,1.4,36.34
98691.7674012,990.0,0.95,0.11,0.0,-0.55,0.91,40.85
98691.7751873,991.0,0.98,0.11,-0.0,-0.73,0.55,45.67
98691.7811674,992.0,0.98,0.11,-0.01,-1.4,-0.06,50.12
98691.78262,993.0,0.95,0.11,-0.0,-2.07,0.49,53.9
98691.7907071,994.0,0.95,0.11,-0.01,-2.01,0.12,56.65
98691.7909052,995.0,1.04,0.15,-0.05,-1.83,-0.49,58.41
98691.7969309,996.0,1.02,0.16,-0.07,-1.28,3.6,59.76
98691.8063792,997.0,0.94,0.15,-0.12,-0.85,2.26,58.41
98691.8065772,998.0,1.09,0.16,-0.09,-0.55,1.46,57.01
98691.8124957,999.0,1.07,0.13,-0.1,0.18,-1.46,54.39
98691.8127079,1000.0,1.0,0.11,-0.15,-0.61,1.34,51.59
98691.8228789,1001.0,1.01,0.12,-0.14,0.24,-3.96,47.13
98691.8230836,1002.0,1.05,0.11,-0.08,-1.22,1.4,42.93
98691.8293383,1003.0,1.04,0.11,-0.07,-2.68,1.71,37.87
98691.82955,1004.0,1.06,0.08,-0.09,-4.15,0.79,31.95
98691.8397764,1005.0,1.07,0.07,-0.07,-4.51,-0.43,26.16
98691.8399863,1006.0,1.05,0.06,-0.07,-5.12,0.49,20.43
98691.8460868,1007.0,1.07,0.04,-0.06,-5.24,0.37,14.21
98691.8479294,1008.0,1.06,0.03,-0.06,-5.37,0.3,8.48
98691.8569225,1009.0,1.05,0.04,-0.05,-4.88,0.18,2.93
98691.857122,1010.0,1.03,0.04,-0.05,-4.51,1.71,-2.2
98691.8651375,1011.0,1.1,0.05,-0.03,-3.9,-0.67,-6.95
98691.8653648,1012.0,1.04,0.07,-0.05,-3.35,0.61,-11.4
98691.8761231,1013.0,1.03,0.08,-0.04,-2.87,0.67,-15.49
98691.8763302,1014.0,1.05,0.1,-0.04,-2.44,0.3,-19.15
98691.8824953,1015.0,1.02,0.13,-0.04,-2.68,0.73,-22.56
98691.8827347,1016.0,1.02,0.16,-0.05,-2.8,0.43,-25.61
98691.892683,1017.0,1.02,0.16,-0.06,-3.29,0.37,-28.23
98691.8928935,1018.0,1.01,0.16,-0.08,-3.35,0.55,-30.67
98691.8988053,1019.0,1.03,0.07,-0.05,-3.66,0.12,-32.8
98691.9003148,1020.0,1.02,0.1,-0.06,-4.21,0.3,-34.88
98691.9090855,1021.0,1.01,0.12,-0.05,-4.57,0.3,-36.89
98691.9096262,1022.0,1.01,0.17,-0.05,-4.82,0.24,-38.6
98691.9150861,1023.0,0.99,0.19,-0.05,-5.18,0.37,-40.0
98691.9252749,1024.0,0.99,0.2,-0.05,-5.79,0.06,-40.67
98691.9254902,1025.0,1.0,0.19,-0.05,-6.22,0.67,-40.49
98691.9311019,1026.0,1.0,0.18,-0.05,-6.65,-0.06,-40.24
98691.9326162,1027.0,0.98,0.18,-0.06,-7.13,0.37,-39.76
98691.9417717,1028.0,1.06,0.17,-0.03,-7.13,-2.07,-37.68
98691.9419839,1029.0,0.89,0.17,-0.09,-7.13,0.91,-35.79
98691.9476478,1030.0,1.0,0.17,-0.02,-7.44,-4.09,-34.02
98691.9490639,1031.0,0.95,0.17,-0.12,-6.95,0.98,-30.98
98691.9575871,1032.0,1.0,0.13,-0.05,-6.28,2.07,-27.62
98691.9578023,1033.0,0.97,0.15,-0.05,-6.22,0.49,-24.57
98691.9648966,1034.0,0.97,0.15,-0.06,-5.55,0.06,-21.1
98691.9737604,1035.0,0.89,0.15,-0.07,-5.18,0.98,-17.32
98691.9739715,1036.0,1.01,0.13,-0.01,-5.18,0.61,-12.44
98691.9741885,1037.0,0.91,0.13,-0.05,-5.3,1.04,-7.8
98691.9803332,1038.0,0.96,0.14,-0.02,-5.61,-0.91,-2.93
98691.9902802,1039.0,0.93,0.14,-0.05,-5.49,0.79,1.89
98691.9904817,1040.0,0.96,0.14,-0.03,-5.49,1.16,7.5
98691.9912857,1041.0,0.93,0.15,-0.05,-5.43,0.12,12.93
98691.9978182,1042.0,0.96,0.15,-0.03,-4.88,0.43,18.29
98692.0060656,1043.0,0.95,0.15,-0.05,-4.02,0.61,23.9
98692.006286,1044.0,0.94,0.15,-0.07,-2.99,0.61,29.39
98692.0128033,1045.0,0.95,0.16,-0.05,-2.13,0.79,34.45
98692.0142496,1046.0,0.95,0.17,-0.04,-2.01,0.79,39.27
98692.0229949,1047.0,0.96,0.16,-0.05,-1.22,0.98,42.99
98692.0232067,1048.0,0.97,0.15,-0.05,-1.1,0.98,46.16
98692.0289744,1049.0,0.98,0.14,-0.05,-0.37,0.55,48.17
98692.0310488,1050.0,0.98,0.13,-0.05,0.24,0.79,49.15
98692.038961,1051.0,1.0,0.11,-0.05,0.67,0.55,49.51
98692.0452964,1052.0,1.01,0.09,-0.05,0.3,0.73,48.17
98692.0467482,1053.0,1.02,0.07,-0.05,-0.24,0.61,46.59
98692.0551793,1054.0,1.03,0.06,-0.04,-1.28,0.49,43.9
98692.0553827,1055.0,1.03,0.06,-0.05,-2.13,0.0,40.91
98692.0556136,1056.0,1.03,0.05,-0.06,-3.05,0.18,37.13
98692.0636825,1057.0,1.05,0.06,-0.06,-3.66,-0.18,32.99
98692.0721408,1058.0,1.06,0.05,-0.07,-5.0,-0.06,28.35
98692.0723663,1059.0,1.05,0.04,-0.05,-6.34,-0.73,23.05
98692.0784881,1060.0,1.04,0.04,-0.06,-7.13,-0.49,17.32
98692.0807378,1061.0,1.06,0.04,-0.07,-7.8,-0.61,11.46
98692.0891049,1062.0,1.06,0.06,-0.05,-7.93,-1.28,5.18
98692.0893108,1063.0,1.06,0.07,-0.05,-8.35,-0.18,-0.79
98692.094937,1064.0,1.06,0.07,-0.06,-9.09,-0.06,-6.95
98692.105299,1065.0,1.06,0.08,-0.06,-9.51,-0.67,-12.68
98692.1055159,1066.0,1.05,0.08,-0.06,-10.06,-0.18,-18.78
98692.1057339,1067.0,1.05,0.09,-0.06,-10.61,-0.73,-23.72
98692.1119035,1068.0,1.03,0.1,-0.06,-10.91,-0.12,-28.78
98692.1212198,1069.0,1.05,0.06,-0.05,-10.79,-0.73,-32.68
98692.1214453,1070.0,1.04,0.07,-0.05,-10.91,-0.43,-36.95
98692.1269767,1071.0,1.03,0.1,-0.05,-10.55,-0.67,-40.12
98692.1285018,1072.0,1.02,0.11,-0.05,-10.49,-0.24,-43.41
98692.1366594,1073.0,1.02,0.15,-0.06,-9.76,-0.67,-45.67
98692.1368909,1074.0,1.01,0.16,-0.05,-9.88,-0.55,-47.56
98692.1441019,1075.0,1.0,0.17,-0.06,-9.27,-0.37,-49.33
98692.1528209,1076.0,1.0,0.18,-0.06,-8.78,-1.1,-49.94
98692.153047,1077.0,0.98,0.2,-0.07,-8.17,-0.37,-50.3
98692.1588121,1078.0,0.98,0.2,-0.07,-7.2,0.0,-50.06
98692.1603353,1079.0,0.97,0.19,-0.06,-6.59,-0.67,-49.57
98692.168726,1080.0,0.96,0.19,-0.07,-5.85,-0.06,-48.17
98692.1689482,1081.0,0.92,0.2,-0.1,-4.88,3.9,-46.28
98692.1746247,1082.0,0.89,0.17,-0.08,-4.57,-1.89,-43.84
98692.1767695,1083.0,0.96,0.17,-0.04,-4.02,-0.24,-40.73
98692.1850483,1084.0,0.97,0.18,-0.05,-3.78,0.49,-37.62
98692.1852597,1085.0,0.95,0.17,-0.04,-3.6,-1.83,-33.54
98692.1917967,1086.0,0.9,0.17,-0.06,-2.93,0.67,-29.27
98692.2013054,1087.0,0.97,0.16,-0.04,-2.62,1.04,-24.39
98692.2015142,1088.0,1.0,0.17,-0.02,-2.01,1.34,-18.78
98692.2017342,1089.0,0.91,0.17,-0.04,-1.83,0.3,-13.48
98692.2083836,1090.0,0.94,0.16,-0.01,-1.83,1.34,-7.13
98692.2175377,1091.0,0.95,0.15,-0.0,-1.52,-0.06,-0.98
98692.2177495,1092.0,0.94,0.14,-0.01,-1.04,0.91,5.18
98692.2236596,1093.0,0.94,0.14,-0.04,-0.61,0.61,11.83
98692.2257317,1094.0,0.92,0.2,-0.04,0.0,1.28,17.99
98692.2339045,1095.0,0.93,0.17,-0.04,0.43,1.4,24.09
98692.2341068,1096.0,0.93,0.17,-0.04,0.85,1.89,30.0
98692.2398567,1097.0,0.94,0.16,-0.03,1.16,1.52,35.73
98692.2414008,1098.0,0.95,0.15,-0.02,1.65,1.4,41.16
98692.2500074,1099.0,0.95,0.12,-0.02,1.71,1.77,46.34
98692.2565912,1100.0,0.98,0.11,-0.01,1.95,0.98,50.55
98692.2581199,1101.0,0.96,0.12,-0.02,2.5,1.1,53.96
98692.2679974,1102.0,0.97,0.12,-0.03,2.44,2.13,56.4
98692.2682004,1103.0,1.0,0.13,-0.05,3.54,0.61,56.95
98692.2743239,1104.0,1.01,0.12,-0.04,4.27,1.89,56.59
98692.275808,1105.0,0.97,0.09,-0.05,4.57,1.52,54.7
98692.2920048,1106.0,1.03,0.08,-0.04,3.84,1.95,51.59
98692.2936058,1107.0,1.05,0.07,-0.07,3.41,0.73,47.87
98692.2941975,1108.0,1.04,0.05,-0.06,1.83,1.1,42.68
98692.3026486,1109.0,1.08,0.05,-0.07,0.24,0.37,36.95
98692.3028622,1110.0,1.12,0.06,-0.09,-0.18,-1.4,30.91
98692.3030664,1111.0,1.04,0.04,-0.06,-2.44,0.79,23.54
98692.3044952,1112.0,1.06,0.04,-0.07,-4.02,-0.24,14.88
98692.3135366,1113.0,1.11,0.06,-0.09,-5.06,-2.62,6.89
98692.3137435,1114.0,1.1,0.06,-0.09,-5.85,-1.77,-2.07
98692.3195826,1115.0,1.06,0.1,-0.08,-7.26,2.01,-10.06
98692.3216523,1116.0,1.05,0.09,-0.07,-8.66,1.16,-17.62
98692.3302317,1117.0,1.04,0.09,-0.08,-9.45,1.59,-24.02
98692.3304397,1118.0,1.04,0.11,-0.08,-9.63,-0.37,-30.3
98692.337441,1119.0,1.04,0.13,-0.06,-10.0,-0.18,-35.18
98692.3388584,1120.0,1.04,0.14,-0.06,-10.3,-0.24,-39.94
98692.3468762,1121.0,1.03,0.15,-0.07,-10.18,0.43,-43.78
98692.3528698,1122.0,1.02,0.16,-0.07,-9.7,0.43,-47.07
98692.3543244,1123.0,1.04,0.14,-0.04,-8.96,-0.43,-49.51
98692.3629004,1124.0,1.01,0.15,-0.05,-8.17,-0.06,-51.46
98692.3631131,1125.0,1.0,0.16,-0.04,-7.87,-0.73,-52.8
98692.3689716,1126.0,0.99,0.15,-0.05,-7.32,-0.55,-53.17
98692.3705845,1127.0,0.99,0.17,-0.04,-6.83,-0.43,-53.17
98692.3791036,1128.0,0.99,0.19,-0.04,-6.1,-0.67,-52.8
98692.3793173,1129.0,0.97,0.21,-0.05,-5.3,-1.04,-51.89
98692.3853994,1130.0,0.97,0.23,-0.03,-4.63,-0.91,-50.37
98692.387341,1131.0,0.96,0.24,-0.05,-4.09,-0.12,-47.99
98692.3953287,1132.0,0.95,0.23,-0.05,-3.35,-1.22,-45.55
98692.4015222,1133.0,0.96,0.23,-0.05,-2.68,-1.1,-42.2
98692.4030153,1134.0,0.95,0.2,-0.04,-2.74,-1.4,-37.87
98692.4118691,1135.0,0.92,0.19,-0.07,-2.13,3.54,-33.11
98692.4120795,1136.0,0.91,0.18,-0.06,-1.89,1.71,-28.78
98692.4179626,1137.0,0.96,0.18,-0.03,-1.65,0.37,-23.6
98692.4194898,1138.0,0.93,0.17,-0.03,-1.65,1.16,-17.32
98692.4281977,1139.0,0.91,0.18,-0.02,-2.26,0.43,-11.28
98692.4284048,1140.0,0.94,0.18,-0.03,-2.26,0.06,-4.88
98692.4346065,1141.0,0.94,0.17,-0.04,-1.77,0.67,1.46
98692.4359796,1142.0,0.92,0.18,-0.05,-1.52,1.16,7.5
98692.444048,1143.0,0.93,0.18,-0.05,-1.04,0.67,13.6
98692.4442554,1144.0,0.94,0.18,-0.06,-0.24,1.04,19.39
98692.451274,1145.0,0.94,0.18,-0.05,-0.37,1.22,25.37
98692.4603589,1146.0,0.94,0.16,-0.02,-1.1,1.04,31.04
98692.4605656,1147.0,0.94,0.15,-0.0,-2.2,1.1,36.52
98692.4614199,1148.0,0.95,0.15,-0.01,-2.99,0.12,42.5
98692.4670601,1149.0,0.96,0.13,-0.0,-3.9,0.37,48.05
98692.4769544,1150.0,0.98,0.14,-0.01,-4.76,-0.12,53.48
98692.4771861,1151.0,0.93,0.13,-0.03,-5.3,1.71,58.72
98692.4793404,1152.0,0.99,0.14,0.0,-5.55,-1.46,63.29
98692.4875415,1153.0,0.93,0.14,-0.05,-4.94,0.67,67.68
98692.4877466,1154.0,0.98,0.15,-0.04,-4.09,-2.32,71.04
98692.4941066,1155.0,0.96,0.17,-0.04,-3.6,0.79,74.94
98692.5043358,1156.0,0.92,0.16,-0.07,-2.62,1.28,77.07
98692.5045371,1157.0,1.0,0.18,-0.07,-2.38,1.1,79.39
98692.5047365,1158.0,0.97,0.16,-0.08,-2.07,1.83,80.85
98692.5113656,1159.0,1.0,0.16,-0.11,-1.52,0.85,81.16
98692.5216053,1160.0,0.98,0.16,-0.09,-0.98,1.4,81.04
98692.5218307,1161.0,1.0,0.14,-0.09,-0.98,0.85,79.88
98692.5225399,1162.0,1.01,0.13,-0.1,-0.3,0.91,77.93
98692.5281659,1163.0,1.02,0.13,-0.11,0.49,0.91,75.12
98692.5381826,1164.0,1.04,0.07,-0.05,-0.06,0.73,71.65
98692.5384196,1165.0,1.05,0.04,-0.06,-0.73,0.73,67.74
98692.5447298,1166.0,1.05,0.02,-0.06,-1.16,0.49,63.41
98692.5462025,1167.0,1.06,0.03,-0.05,-1.83,0.49,58.66
98692.5551482,1168.0,1.05,0.01,-0.06,-2.01,0.49,53.54
98692.5553506,1169.0,1.06,-0.0,-0.05,-2.44,0.37,48.11
98692.5616132,1170.0,1.07,-0.03,-0.04,-2.99,0.06,43.05
98692.5630921,1171.0,1.07,-0.06,-0.05,-3.96,-0.67,36.1
98692.571927,1172.0,1.17,-0.06,-0.02,-6.4,-3.6,28.23
98692.5721414,1173.0,1.4,-0.04,0.05,-8.84,-20.55,20.18
98692.5783562,1174.0,1.32,-0.03,0.03,-11.1,-38.23,13.72
98692.5798477,1175.0,1.01,-0.02,-0.07,-12.26,-42.13,8.78
98692.588467,1176.0,0.8,-0.04,-0.12,-13.35,-26.77,4.76
98692.5891723,1177.0,0.73,-0.02,-0.16,-13.11,-9.51,1.28
98692.5948886,1178.0,0.73,-0.01,-0.17,-12.56,8.96,-2.38
98692.6047891,1179.0,0.78,-0.0,-0.15,-11.28,25.67,-6.4
98692.6050098,1180.0,0.87,0.04,-0.13,-8.17,37.5,-9.82
98692.6113613,1181.0,1.06,0.09,-0.05,-4.39,41.52,-10.61
98692.6128503,1182.0,1.05,0.09,-0.02,-1.28,39.51,-12.32
98692.6217177,1183.0,1.44,0.1,0.09,3.17,-25.0,-8.41
98692.6219219,1184.0,0.98,0.08,0.32,3.17,8.35,-3.23
98692.6237891,1185.0,0.65,0.05,-0.21,2.2,-0.43,-5.43
98692.6317749,1186.0,1.12,0.06,-0.06,0.73,-1.95,-7.13
98692.6383659,1187.0,1.0,0.04,-0.11,-1.4,2.38,-6.95
98692.6399733,1188.0,1.02,-0.01,-0.06,-2.87,-1.46,-6.22
98692.6489302,1189.0,1.03,-0.01,-0.04,-3.84,-0.85,-5.37
98692.6491728,1190.0,0.98,0.01,-0.05,-5.06,-0.06,-3.9
98692.6556877,1191.0,1.03,0.03,-0.06,-5.91,-2.26,-2.07
98692.6571415,1192.0,1.02,0.07,-0.07,-6.34,-4.09,1.16
98692.6658328,1193.0,1.01,0.11,-0.07,-5.98,-7.8,4.57
98692.6660383,1194.0,1.01,0.14,-0.08,-5.06,-10.79,8.48
98692.6728955,1195.0,1.0,0.15,-0.05,-4.7,-13.54,11.59
98692.6743036,1196.0,0.97,0.18,-0.03,-4.45,-14.33,15.0
98692.6833528,1197.0,0.93,0.18,-0.04,-4.39,-12.93,17.8
98692.683568,1198.0,0.92,0.1,-0.09,-4.7,-8.9,20.55
98692.6899497,1199.0,0.89,0.13,-0.11,-3.05,-4.57,23.17
98692.6915357,1200.0,0.91,0.15,-0.13,-0.98,0.49,25.18
98692.7007017,1201.0,1.0,0.13,-0.08,0.79,1.16,27.74
98692.7008999,1202.0,1.1,0.08,-0.01,1.59,-4.88,30.55
98692.7072148,1203.0,2.15,0.03,0.46,1.1,-39.09,38.05
98692.7088546,1204.0,1.07,-0.0,-0.02,-1.65,-48.05,41.28
98692.7178857,1205.0,1.17,-0.02,-0.02,-2.99,-46.59,40.06
98692.7181073,1206.0,1.22,-0.02,0.04,-5.12,-55.67,38.66
98692.7299279,1207.0,1.16,-0.04,-0.04,-7.44,-63.96,37.93
98692.730541,1208.0,0.94,-0.1,-0.1,-9.33,-62.01,35.37
98692.7309344,1209.0,0.72,-0.12,-0.22,-9.76,-43.35,24.09
98692.7367135,1210.0,0.58,-0.08,-0.28,-8.23,-12.87,9.76
98692.7385562,1211.0,0.66,-0.07,-0.25,-5.79,12.99,-0.98
98692.7468873,1212.0,0.9,0.01,-0.13,-3.41,24.94,-5.12
98692.753417,1213.0,1.05,0.06,-0.06,-1.65,23.9,-4.33
98692.7552923,1214.0,1.09,0.07,-0.02,-0.73,18.6,-2.62
98692.7559277,1215.0,1.08,0.07,-0.03,-0.98,13.54,-1.04
98692.764175,1216.0,1.07,0.07,-0.04,-1.22,9.21,0.12
98692.7707263,1217.0,1.04,0.06,-0.05,-0.67,6.16,1.04
98692.7709426,1218.0,1.0,0.04,-0.08,0.06,5.55,1.83
98692.7814519,1219.0,1.18,0.04,0.03,0.43,-8.6,4.51
98692.7816437,1220.0,0.82,0.03,-0.16,1.46,-0.37,4.7
98692.7818401,1221.0,1.12,0.0,-0.02,2.13,-7.99,6.52
98692.7881705,1222.0,0.94,-0.0,-0.11,3.05,-3.72,6.71
98692.7982266,1223.0,1.07,-0.01,-0.06,4.7,-7.74,7.32
98692.7984299,1224.0,0.98,0.0,-0.11,6.59,-4.27,6.89
98692.8005725,1225.0,1.02,0.01,-0.11,9.21,-6.34,8.78
98692.8101397,1226.0,0.91,0.04,-0.2,10.12,8.05,14.88
98692.8103463,1227.0,0.79,0.07,-0.31,9.76,43.6,23.78
98692.81673,1228.0,0.74,0.08,-0.34,9.51,89.76,34.33
98692.8187636,1229.0,0.72,0.1,-0.39,9.7,137.74,45.73
98692.8275568,1230.0,0.76,0.08,-0.34,9.51,184.88,58.6
98692.8277639,1231.0,0.84,0.07,-0.21,8.9,223.35,70.61
98692.8341892,1232.0,4.52,1.59,1.51,-15.06,-171.89,-20.67
98692.8357735,1233.0,0.25,0.31,-0.72,-13.41,-75.37,0.67
98692.8446576,1234.0,0.15,0.17,-0.17,-17.01,-73.54,9.21
98692.8452695,1235.0,-4.54,-0.98,-5.12,-17.5,12.99,1.04
98692.8511597,1236.0,1.33,0.4,0.48,-7.5,93.23,20.49
98692.8532197,1237.0,1.44,0.37,0.26,-7.5,89.57,38.54
98692.8620554,1238.0,3.56,0.54,1.17,-13.41,-131.46,2.13
98692.8632968,1239.0,0.14,0.09,-0.08,-10.79,-62.07,10.3
98692.8729626,1240.0,5.33,0.66,2.05,-1.59,11.4,24.94
98692.8731741,1241.0,0.35,-0.45,1.47,-7.99,7.68,-24.63
98692.8733793,1242.0,1.03,-0.25,0.62,-3.66,-58.96,-1.46
98692.8810114,1243.0,0.2,-0.58,-0.29,-6.71,21.22,-4.76
98692.8898278,1244.0,0.83,0.29,-0.6,-5.12,15.3,14.45
98692.8900487,1245.0,1.18,0.09,-0.4,-5.67,6.83,0.73
98692.8967015,1246.0,2.39,0.2,0.34,-3.48,-47.2,6.1
98692.8987613,1247.0,1.0,0.1,0.15,-3.72,6.34,10.43
98692.9074452,1248.0,0.89,0.03,0.37,-4.02,-10.12,-0.37
98692.9076556,1249.0,0.77,-0.09,-0.3,-4.33,7.74,-4.15
98692.9142291,1250.0,1.12,0.06,-0.19,-3.48,-2.2,-0.3
98692.9160462,1251.0,1.39,0.06,0.18,-3.54,-7.26,1.83
98692.9249009,1252.0,0.88,-0.05,-0.07,-3.48,8.05,-0.24
98692.925112,1253.0,0.75,-0.07,-0.12,-3.78,-0.18,-1.59
98692.9314896,1254.0,1.11,-0.02,0.11,-3.72,-3.6,-0.06
98692.9335534,1255.0,1.05,-0.01,-0.05,-3.72,4.09,0.61
98692.9426718,1256.0,1.0,-0.02,-0.08,-3.84,-0.73,-0.43
98692.9428829,1257.0,1.0,-0.02,0.02,-3.6,-2.07,-0.61
98692.9449731,1258.0,1.0,-0.0,-0.05,-3.48,3.6,-0.18
98692.9533628,1259.0,0.95,-0.02,-0.1,-3.6,-0.3,0.12
98692.9601348,1260.0,1.06,-0.01,0.02,-3.9,-1.65,-0.37
98692.9616431,1261.0,1.02,-0.0,-0.03,-3.48,1.83,-0.55
98692.9707581,1262.0,1.02,-0.0,-0.05,-4.02,-0.12,-0.18
98692.9709721,1263.0,1.04,-0.0,0.01,-3.54,-0.91,-0.37
98692.9777711,1264.0,0.98,-0.01,-0.04,-3.78,2.07,-0.55
98692.9793302,1265.0,0.96,-0.01,-0.08,-3.6,0.3,-0.43
98692.9799111,1266.0,1.03,-0.0,-0.0,-3.54,-0.85,-0.55
98692.988334,1267.0,1.02,-0.0,-0.03,-3.78,1.04,-0.24
98692.9890811,1268.0,1.01,-0.01,-0.06,-3.72,0.43,-0.55
98692.9954089,1269.0,1.01,-0.01,-0.02,-3.6,-0.67,-0.43
98692.9968314,1270.0,1.01,-0.01,-0.04,-3.72,1.1,-0.3
98693.005701,1271.0,0.99,-0.01,-0.06,-3.66,0.67,-0.3
98693.0075452,1272.0,1.03,-0.01,-0.02,-3.48,-0.3,-0.24
98693.01639,1273.0,1.02,-0.01,-0.03,-3.41,0.49,-0.18
98693.0165963,1274.0,1.0,-0.01,-0.05,-3.6,0.79,-0.24
98693.0234553,1275.0,1.01,-0.01,-0.03,-3.9,-0.61,-0.24
98693.0251242,1276.0,1.01,-0.01,-0.03,-3.72,0.3,-0.24
98693.0335851,1277.0,0.99,-0.0,-0.05,-3.66,0.61,-0.3
98693.033793,1278.0,1.01,-0.01,-0.02,-3.66,-0.12,-0.24
98693.0417456,1279.0,1.02,-0.01,-0.03,-3.78,0.43,-0.49
98693.0432599,1280.0,1.0,-0.01,-0.05,-3.54,0.85,-0.3
98693.0522837,1281.0,1.0,-0.01,-0.04,-3.78,0.0,-0.37
98693.0524967,1282.0,1.01,-0.01,-0.03,-3.54,0.37,-0.3
98693.0592955,1283.0,1.0,-0.01,-0.04,-3.72,0.79,-0.24
98693.0608398,1284.0,1.01,-0.01,-0.03,-3.72,-0.06,0.06
98693.069926,1285.0,1.01,-0.01,-0.03,-3.72,0.67,-0.24
98693.0701342,1286.0,1.0,-0.0,-0.04,-3.6,0.67,-0.37
98693.0720145,1287.0,1.01,-0.0,-0.04,-3.54,0.37,-0.3
98693.0808192,1288.0,1.0,-0.01,-0.04,-3.78,0.12,-0.18
98693.0810285,1289.0,1.0,-0.0,-0.04,-3.54,0.3,-0.49
98693.0884948,1290.0,1.01,-0.01,-0.03,-3.9,0.55,-0.37
98693.0899822,1291.0,1.01,-0.01,-0.03,-3.6,0.06,-0.24
98693.0986262,1292.0,1.01,-0.01,-0.04,-3.6,0.61,-0.43
98693.098836,1293.0,1.0,-0.01,-0.04,-3.84,0.49,-0.49
98693.1056134,1294.0,1.0,-0.01,-0.04,-3.84,0.18,-0.12
98693.1070653,1295.0,1.0,-0.01,-0.04,-3.48,0.06,-0.49
98693.115622,1296.0,1.01,-0.0,-0.04,-3.54,0.18,-0.43
98693.1158419,1297.0,1.01,-0.0,-0.04,-3.78,0.18,-0.24
98693.1225163,1298.0,1.01,-0.01,-0.04,-3.6,0.61,-0.37
98693.1239673,1299.0,1.0,-0.01,-0.03,-3.9,0.18,-0.18
98693.1327852,1300.0,1.0,-0.01,-0.04,-3.54,0.12,-0.43
98693.1329979,1301.0,1.0,-0.01,-0.04,-3.96,0.37,0.0
98693.1396329,1302.0,1.0,-0.01,-0.04,-3.84,0.24,-0.12
98693.1412068,1303.0,1.01,-0.01,-0.03,-3.96,0.24,-0.3
98693.1501592,1304.0,1.0,-0.01,-0.04,-3.66,0.12,-0.18
98693.1503744,1305.0,1.01,-0.0,-0.04,-3.78,0.55,-0.3
98693.1553961,1306.0,1.01,-0.01,-0.03,-3.78,0.24,-0.37
98693.1609965,1307.0,1.01,-0.0,-0.04,-3.96,0.12,-0.12
98693.1678572,1308.0,1.01,-0.01,-0.04,-3.41,0.18,-0.3
98693.1698378,1309.0,1.01,-0.0,-0.04,-3.66,0.18,-0.24
98693.1729237,1310.0,1.0,-0.0,-0.04,-3.6,0.37,-0.3
98693.1784833,1311.0,1.01,-0.01,-0.04,-3.6,-0.3,-0.3
98693.1793134,1312.0,1.01,0.0,-0.03,-3.23,-1.34,-0.24
98693.1855719,1313.0,0.99,0.05,-0.04,-0.24,0.24,-0.18
98693.195714,1314.0,1.01,0.18,0.12,-8.84,1.46,-0.37
98693.1959498,1315.0,1.0,0.07,0.02,-20.67,-3.17,-1.16
98693.2027761,1316.0,1.16,0.03,0.11,-22.32,-22.5,-2.74
98693.2037056,1317.0,1.13,0.04,-0.01,-18.84,-37.8,-6.4
98693.2078257,1318.0,0.98,0.07,-0.1,-12.62,-42.56,-6.52
98693.2136184,1319.0,0.97,0.08,-0.14,-7.62,-29.88,-7.32
98693.2141812,1320.0,0.93,0.04,-0.12,-3.84,-15.98,-10.49
98693.2247542,1321.0,1.07,-0.01,-0.07,-2.44,-9.82,-13.9
98693.2249767,1322.0,1.02,-0.07,0.0,-2.32,-12.74,-16.77
98693.2317594,1323.0,1.06,-0.11,0.03,-2.93,-20.55,-18.78
98693.2333614,1324.0,1.03,-0.12,0.05,-4.15,-28.6,-21.46
98693.2427555,1325.0,1.04,-0.13,0.02,-4.82,-36.4,-24.27
98693.2429728,1326.0,1.0,-0.13,0.03,-6.1,-44.15,-28.9
98693.2497988,1327.0,1.02,-0.12,0.02,-8.35,-50.98,-33.17
98693.2513848,1328.0,1.0,-0.1,-0.05,-9.82,-55.98,-37.87
98693.2605354,1329.0,0.96,-0.08,-0.13,-11.4,-54.76,-43.41
98693.2607634,1330.0,0.9,-0.08,-0.16,-12.13,-38.78,-44.94
98693.267112,1331.0,0.11,-0.12,-0.08,-12.62,8.23,-53.54
98693.2687133,1332.0,0.55,-0.06,0.08,-14.09,50.43,-56.71
98693.2777097,1333.0,0.63,-0.04,-0.27,-13.9,55.67,-62.8
98693.2779347,1334.0,0.73,-0.02,-0.02,-11.34,67.07,-66.77
98693.2880084,1335.0,0.86,0.09,-0.14,-8.41,79.39,-70.06
98693.2882236,1336.0,1.01,0.1,0.03,-5.98,81.59,-69.45
98693.2949241,1337.0,1.81,0.18,0.14,-6.1,-29.27,-50.98
98693.2965172,1338.0,2.06,0.34,-0.22,-3.29,5.37,-56.22
98693.3053739,1339.0,0.14,-0.11,0.2,-4.51,-5.73,-59.57
98693.3055945,1340.0,-0.24,-0.26,-0.23,-3.54,-8.41,-55.67
98693.3123915,1341.0,0.48,0.03,-0.34,-6.46,14.39,-55.73
98693.3139568,1342.0,0.57,0.01,0.01,-10.43,-3.41,-52.8
98693.3232341,1343.0,0.86,0.07,0.01,-13.54,2.5,-49.39
98693.323443,1344.0,0.79,0.08,-0.01,-15.37,-0.43,-47.07
98693.329973,1345.0,1.14,0.12,-0.06,-16.22,-3.6,-43.9
98693.3317152,1346.0,1.02,0.12,-0.02,-16.77,-1.95,-41.1
98693.340803,1347.0,1.02,0.16,-0.04,-17.01,-2.2,-37.38
98693.3410369,1348.0,0.91,0.15,-0.03,-16.4,0.49,-33.84
98693.3474899,1349.0,0.98,0.17,-0.02,-15.98,-0.85,-29.63
98693.3490574,1350.0,0.88,0.16,-0.03,-14.94,0.67,-24.88
98693.3584547,1351.0,0.95,0.17,-0.03,-14.09,1.52,-20.0
98693.3586699,1352.0,0.97,0.17,-0.02,-12.38,-1.59,-14.15
98693.3689253,1353.0,0.94,0.16,-0.06,-11.04,-1.89,-7.8
98693.3691432,1354.0,0.93,0.16,-0.05,-9.21,-2.62,-1.71
98693.3760392,1355.0,0.92,0.15,-0.06,-7.5,-2.5,4.02
98693.377127,1356.0,0.9,0.14,-0.09,-6.04,-0.67,10.24
98693.3783893,1357.0,0.87,0.14,-0.09,-5.0,2.62,15.3
98693.38701,1358.0,0.86,0.13,-0.12,-3.48,7.07,20.37
98693.3937677,1359.0,1.13,0.1,0.0,-2.07,-0.06,26.77
98693.395406,1360.0,0.93,0.13,-0.1,-0.91,4.27,32.93
98693.4045411,1361.0,0.94,0.11,-0.11,0.85,0.37,37.68
98693.404741,1362.0,0.96,0.11,-0.07,2.32,0.18,42.62
98693.4112701,1363.0,0.93,0.12,-0.11,3.48,2.2,46.4
98693.4121006,1364.0,0.99,0.09,-0.09,3.84,1.46,49.51
98693.4222222,1365.0,1.0,0.08,-0.06,4.09,1.1,52.38
98693.4224245,1366.0,0.99,0.08,-0.07,4.21,1.52,54.76
98693.4226174,1367.0,0.98,0.06,-0.06,3.54,1.04,56.04
98693.4327457,1368.0,1.01,0.06,-0.06,3.35,0.79,57.13
98693.4329473,1369.0,1.01,0.05,-0.06,2.44,0.91,56.77
98693.4395537,1370.0,1.01,0.03,-0.08,1.83,0.49,56.1
98693.4409509,1371.0,1.02,0.02,-0.07,0.85,0.24,54.09
98693.4496366,1372.0,1.04,0.01,-0.07,-0.43,0.98,52.01
98693.44984,1373.0,1.03,-0.01,-0.08,-1.95,0.98,48.29
98693.4577204,1374.0,1.47,-0.02,0.35,-5.3,-31.71,57.93
98693.4584794,1375.0,1.07,-0.06,0.06,-7.74,-42.13,48.35
98693.4675724,1376.0,1.06,-0.08,0.02,-10.3,-40.43,39.82
98693.4679996,1377.0,0.8,-0.11,-0.07,-13.29,-41.4,31.65
98693.4745099,1378.0,0.95,-0.06,-0.07,-16.04,-42.5,22.5
98693.4760955,1379.0,0.91,-0.08,-0.1,-18.41,-39.39,14.02
98693.4847815,1380.0,0.99,-0.02,-0.12,-20.37,-32.07,6.77
98693.4850041,1381.0,0.38,-0.09,-0.31,-19.82,3.17,1.16
98693.4954531,1382.0,1.05,-0.04,0.07,-20.61,2.07,-6.77
98693.4956786,1383.0,0.63,-0.05,-0.36,-20.06,19.94,-15.85
98693.5024873,1384.0,1.09,-0.0,-0.11,-18.96,20.3,-21.77
98693.5027818,1385.0,0.93,-0.01,-0.24,-15.67,31.83,-28.6
98693.5130914,1386.0,1.01,-0.01,-0.07,-13.9,34.45,-34.27
98693.5133181,1387.0,0.91,0.02,-0.11,-12.44,43.17,-39.15
98693.520372,1388.0,1.01,0.03,-0.06,-10.98,45.49,-43.54
98693.5220518,1389.0,0.96,0.05,-0.09,-9.76,52.68,-46.83
98693.5308428,1390.0,3.0,0.09,0.38,-9.09,5.18,-38.29
98693.531053,1391.0,0.78,0.12,-0.41,-6.89,8.35,-39.76
98693.5382158,1392.0,1.47,0.05,0.26,-6.16,-14.33,-41.59
98693.5399374,1393.0,0.4,0.08,-0.25,-6.52,14.45,-40.37
98693.5485431,1394.0,0.89,0.1,-0.01,-6.77,-6.46,-42.38
98693.5487806,1395.0,1.06,0.08,0.01,-7.01,-0.18,-42.8
98693.5559258,1396.0,0.95,0.11,-0.1,-7.74,1.95,-43.05
98693.5575119,1397.0,1.07,0.1,-0.07,-7.5,-0.98,-42.99
98693.5660753,1398.0,1.08,0.12,-0.04,-7.32,0.12,-42.56
98693.5662845,1399.0,1.02,0.12,-0.09,-6.89,0.91,-42.32
98693.568595,1400.0,1.08,0.1,0.04,-6.16,-0.61,-40.91
98693.5778941,1401.0,0.94,0.14,-0.07,-6.28,2.44,-38.48
98693.5785075,1402.0,0.95,0.12,-0.04,-6.95,-0.79,-36.52
98693.5846539,1403.0,0.98,0.11,-0.05,-6.89,-2.93,-34.57
98693.5868463,1404.0,0.95,0.11,-0.04,-6.89,-0.98,-31.83
98693.5951955,1405.0,1.0,0.1,-0.03,-7.07,0.12,-27.62
98693.5958424,1406.0,0.94,0.11,-0.06,-6.59,-1.1,-24.15
98693.6023265,1407.0,1.01,0.09,-0.03,-6.4,-0.67,-19.27
98693.603922,1408.0,0.94,0.1,-0.07,-5.73,0.18,-14.57
98693.6126583,1409.0,0.93,0.1,-0.09,-5.43,1.52,-10.06
98693.6132697,1410.0,0.94,0.1,-0.05,-4.94,-0.73,-5.3
98693.6196841,1411.0,0.96,0.1,-0.04,-4.82,-0.06,-0.18
98693.6210939,1412.0,0.93,0.1,-0.04,-4.39,0.06,5.61
98693.6297376,1413.0,0.94,0.09,-0.03,-3.96,0.0,10.67
98693.6315866,1414.0,0.95,0.09,-0.03,-3.72,0.49,15.85
98693.6403242,1415.0,0.94,0.09,-0.04,-2.5,1.52,20.91
98693.6405311,1416.0,0.97,0.08,-0.01,-2.07,1.16,25.67
98693.6413634,1417.0,0.96,0.08,-0.02,-1.65,0.85,30.3
98693.6487926,1418.0,0.95,0.08,-0.03,-0.61,0.85,35.12
98693.6575578,1419.0,0.96,0.09,-0.02,0.12,0.61,38.54
98693.6577586,1420.0,0.97,0.12,-0.05,1.04,0.98,41.59
98693.6645011,1421.0,0.98,0.09,-0.05,1.95,0.91,43.66
98693.6661153,1422.0,1.0,0.08,-0.05,2.2,0.67,44.94
98693.6753685,1423.0,1.0,0.06,-0.05,1.95,0.55,44.82
98693.675564,1424.0,1.02,0.04,-0.06,1.1,0.73,44.02
98693.6821987,1425.0,1.02,0.02,-0.06,0.12,0.55,42.26
98693.6839421,1426.0,1.03,0.01,-0.06,-1.52,0.37,40.0
98693.6936876,1427.0,1.04,0.01,-0.06,-2.99,0.37,36.46
98693.6938934,1428.0,1.05,0.01,-0.06,-4.21,0.3,31.89
98693.7047875,1429.0,1.06,0.01,-0.06,-5.24,0.0,26.59
98693.704992,1430.0,1.06,-0.0,-0.07,-6.4,0.37,20.67
98693.705203,1431.0,1.06,-0.01,-0.07,-7.32,-0.06,15.37
98693.7124184,1432.0,1.07,-0.02,-0.05,-8.29,0.3,8.84
98693.7140487,1433.0,1.07,-0.01,-0.05,-9.09,0.12,2.56
98693.7241592,1434.0,1.06,-0.0,-0.06,-9.82,0.18,-3.17
98693.724365,1435.0,1.06,0.0,-0.05,-10.73,-0.24,-8.78
98693.7309644,1436.0,1.05,0.01,-0.06,-10.73,0.0,-13.84
98693.7322013,1437.0,1.05,0.02,-0.05,-11.1,-0.06,-18.17
98693.7418076,1438.0,1.05,0.03,-0.05,-11.52,-0.18,-22.2
98693.7420254,1439.0,1.04,0.03,-0.05,-11.1,-0.12,-25.73
98693.7522311,1440.0,1.03,0.04,-0.06,-10.79,-0.37,-29.15
98693.7525083,1441.0,1.03,0.05,-0.06,-10.18,-0.24,-32.13
98693.7527328,1442.0,1.02,0.06,-0.05,-9.15,-0.12,-34.09
98693.7602826,1443.0,1.02,0.07,-0.05,-8.66,-0.12,-36.16
98693.7619882,1444.0,1.02,0.07,-0.05,-8.35,-0.18,-38.11
98693.770577,1445.0,1.01,0.08,-0.04,-7.13,-0.18,-39.09
98693.7716525,1446.0,1.01,0.08,-0.04,-7.01,-0.3,-39.76
98693.7787747,1447.0,1.0,0.09,-0.05,-6.4,0.0,-40.49
98693.7794208,1448.0,1.0,0.09,-0.05,-5.79,-0.06,-40.67
98693.7885745,1449.0,0.99,0.11,-0.06,-5.12,0.3,-40.24
98693.7890587,1450.0,0.99,0.13,-0.06,-3.96,0.12,-39.94
98693.7953913,1451.0,0.98,0.14,-0.07,-3.11,0.12,-39.57
98693.7968082,1452.0,0.99,0.12,-0.05,-2.87,0.12,-37.74
98693.8062396,1453.0,0.98,0.12,-0.04,-2.13,0.73,-35.79
98693.8065903,1454.0,0.99,0.1,-0.03,-2.62,-0.73,-33.41
98693.8170062,1455.0,0.98,0.1,-0.03,-2.2,-0.98,-30.85
98693.8172239,1456.0,0.96,0.11,-0.05,-2.26,-0.24,-27.5
98693.817461,1457.0,0.96,0.11,-0.05,-1.83,0.18,-24.51
98693.8249998,1458.0,0.95,0.13,-0.06,-1.59,0.55,-20.98
98693.8345961,1459.0,0.96,0.12,-0.05,-1.71,0.49,-16.95
98693.8348431,1460.0,0.96,0.14,-0.04,-1.71,0.85,-12.44
98693.8351186,1461.0,0.94,0.13,-0.06,-1.71,0.79,-8.11
98693.8423787,1462.0,0.97,0.12,-0.04,-1.77,0.06,-3.29
98693.8529273,1463.0,0.95,0.12,-0.03,-1.95,-0.3,1.22
98693.8531325,1464.0,0.95,0.12,-0.05,-1.65,-0.06,6.1
98693.8533343,1465.0,0.95,0.12,-0.05,-1.28,0.37,10.85
98693.8599272,1466.0,0.96,0.12,-0.04,-1.04,0.73,15.18
98693.8706459,1467.0,0.96,0.11,-0.04,-0.61,0.79,19.39
98693.8708535,1468.0,0.96,0.13,-0.05,-0.61,0.85,22.87
98693.8710572,1469.0,0.97,0.11,-0.05,-0.49,0.85,25.55
98693.8820473,1470.0,0.98,0.11,-0.06,-0.55,0.55,28.05
98693.8822589,1471.0,0.99,0.09,-0.06,-0.91,0.67,29.02
98693.8897431,1472.0,1.0,0.08,-0.06,-1.46,0.18,29.57
98693.8907902,1473.0,1.01,0.07,-0.06,-2.68,0.3,28.9
98693.900554,1474.0,1.02,0.06,-0.06,-3.72,0.18,27.99
98693.9007618,1475.0,1.03,0.06,-0.06,-4.45,0.12,25.73
98693.9080706,1476.0,1.04,0.04,-0.06,-5.91,-0.49,22.62
98693.9096569,1477.0,1.05,0.03,-0.07,-7.44,-0.18,18.9
98693.9104716,1478.0,1.05,0.03,-0.07,-8.78,-0.43,15.06
98693.9199742,1479.0,1.05,0.03,-0.06,-10.18,-0.18,10.3
98693.9202079,1480.0,1.06,0.03,-0.06,-11.34,-0.49,5.0
98693.9304915,1481.0,1.05,0.03,-0.06,-11.65,-0.18,-0.24
98693.9307108,1482.0,1.05,0.03,-0.07,-11.77,0.49,-5.49
98693.9377036,1483.0,1.06,0.04,-0.06,-11.46,0.24,-10.49
98693.9379202,1484.0,1.05,0.05,-0.06,-11.1,-0.43,-14.76
98693.9483675,1485.0,1.05,0.07,-0.06,-9.76,-0.18,-18.9
98693.9485839,1486.0,1.03,0.07,-0.06,-8.96,0.43,-22.44
98693.9557794,1487.0,1.01,0.07,-0.06,-7.87,0.55,-25.12
98693.9572531,1488.0,1.02,0.08,-0.08,-6.65,0.06,-27.56
98693.9665279,1489.0,1.01,0.09,-0.07,-5.55,0.85,-29.7
98693.9667371,1490.0,1.02,0.1,-0.02,-4.94,0.73,-31.04
98693.9689331,1491.0,1.0,0.11,0.01,-5.55,0.24,-32.07
98693.9774837,1492.0,1.0,0.13,-0.01,-5.61,-0.18,-32.93
98693.9776981,1493.0,1.0,0.13,-0.01,-6.04,-0.3,-32.32
98693.9844846,1494.0,0.99,0.11,-0.04,-5.37,0.24,-31.65
98693.9866148,1495.0,0.99,0.12,-0.05,-4.82,0.0,-30.73
98693.9949317,1496.0,0.99,0.13,-0.04,-3.9,0.06,-29.76
98693.9951415,1497.0,0.98,0.13,-0.05,-3.48,0.18,-28.41
98694.0020719,1498.0,0.98,0.14,-0.05,-2.74,0.37,-26.16
98694.0037732,1499.0,0.98,0.14,-0.04,-1.95,0.18,-24.02
98694.0128845,1500.0,0.97,0.14,-0.04,-1.1,0.3,-21.16
98694.0130972,1501.0,0.97,0.15,-0.05,-0.67,0.67,-18.54
98694.0157643,1502.0,0.96,0.15,-0.05,-0.06,0.79,-15.43
98694.0246938,1503.0,0.96,0.15,-0.04,0.3,0.73,-11.95
98694.0250994,1504.0,0.96,0.15,-0.05,1.22,1.1,-8.23
98694.0314825,1505.0,0.96,0.15,-0.04,1.83,0.91,-5.12
98694.032849,1506.0,0.96,0.15,-0.04,2.13,1.22,-1.28
98694.0421314,1507.0,0.95,0.14,-0.06,2.56,1.34,2.68
98694.0488199,1508.0,0.96,0.12,-0.05,2.93,1.34,6.95
98694.0501576,1509.0,0.96,0.1,-0.05,3.17,1.46,10.55
98694.0602758,1510.0,0.96,0.1,-0.05,3.41,1.4,14.45
98694.0605072,1511.0,0.96,0.13,-0.05,3.54,1.4,17.56
98694.0607023,1512.0,0.97,0.12,-0.05,3.72,1.16,21.16
98694.0671418,1513.0,0.98,0.11,-0.05,3.48,0.85,23.96
98694.0688536,1514.0,0.98,0.11,-0.06,3.35,1.04,25.85
98694.0783478,1515.0,1.0,0.1,-0.06,2.68,0.61,26.59
98694.0785569,1516.0,1.01,0.09,-0.06,1.83,0.06,26.46
98694.0895295,1517.0,1.01,0.07,-0.07,0.3,-0.06,24.63
98694.089736,1518.0,1.03,0.06,-0.06,-1.83,0.3,22.5
98694.089938,1519.0,1.04,0.04,-0.07,-4.51,0.3,18.78
98694.0968031,1520.0,1.04,0.05,-0.08,-6.95,-0.12,14.76
98694.107662,1521.0,1.04,0.05,-0.08,-9.76,-0.43,10.06
98694.1078708,1522.0,1.08,0.07,-0.06,-12.99,-1.77,5.3
98694.1080754,1523.0,1.03,0.06,-0.1,-15.37,-1.22,-0.3
98694.1149331,1524.0,1.07,0.03,-0.07,-17.5,-2.5,-5.55
98694.116987,1525.0,1.07,0.06,-0.06,-18.29,-1.83,-10.85
98694.1272542,1526.0,1.04,0.06,-0.07,-19.27,-1.77,-16.28
98694.1274955,1527.0,1.04,0.08,-0.06,-19.09,-2.32,-20.85
98694.1381167,1528.0,1.02,0.11,-0.07,-18.41,-1.34,-24.7
98694.1383399,1529.0,1.02,0.13,-0.07,-16.89,-0.61,-28.29
98694.1455397,1530.0,1.01,0.15,-0.06,-15.18,-0.24,-30.79
98694.1473519,1531.0,1.01,0.17,-0.07,-13.23,-0.37,-32.93
98694.1480019,1532.0,0.99,0.18,-0.1,-10.3,0.43,-33.72
98694.156526,1533.0,1.01,0.17,-0.07,-7.68,-0.73,-33.48
98694.1635058,1534.0,0.96,0.17,-0.09,-5.49,0.67,-33.11
98694.1646315,1535.0,0.98,0.14,-0.04,-3.6,0.18,-32.62
98694.1654669,1536.0,0.99,0.14,-0.03,-2.62,0.61,-31.28
98694.17487,1537.0,0.95,0.15,-0.04,-1.22,2.38,-29.57
98694.175156,1538.0,1.01,0.14,0.01,-0.43,1.59,-28.23
98694.18571,1539.0,0.99,0.14,0.0,0.06,0.18,-25.98
98694.18591,1540.0,0.99,0.13,0.01,0.67,-0.12,-23.48
98694.1930437,1541.0,0.98,0.12,0.03,0.73,0.67,-20.73
98694.1940981,1542.0,0.94,0.12,0.0,0.91,0.79,-17.68
98694.204139,1543.0,0.96,0.13,0.01,0.98,0.37,-14.63
98694.2043393,1544.0,0.96,0.14,-0.01,1.1,1.1,-11.1
98694.2048059,1545.0,0.95,0.18,-0.05,1.71,1.59,-7.13
98694.2113773,1546.0,0.96,0.17,-0.05,2.8,1.22,-2.99
98694.2129876,1547.0,0.96,0.16,-0.04,3.17,1.4,0.98
98694.2221046,1548.0,0.95,0.16,-0.06,3.41,1.22,5.0
98694.2223137,1549.0,0.95,0.14,-0.04,2.99,1.34,9.39
98694.2321329,1550.0,0.95,0.13,-0.04,2.8,1.83,13.6
98694.2323339,1551.0,0.95,0.12,-0.04,2.13,1.65,17.26
98694.2394607,1552.0,0.96,0.12,-0.04,2.01,1.52,21.1
98694.2410972,1553.0,0.96,0.12,-0.04,2.13,1.83,24.82
98694.2500455,1554.0,0.96,0.11,-0.03,2.07,1.34,28.41
98694.2502441,1555.0,0.98,0.1,-0.01,1.83,0.67,31.16
98694.2572907,1556.0,0.97,0.1,-0.03,1.77,1.46,33.72
98694.2584851,1557.0,0.97,0.1,-0.04,2.13,0.79,35.06
98694.2680183,1558.0,0.98,0.1,-0.06,2.26,1.34,36.1
98694.2682201,1559.0,1.0,0.09,-0.05,1.65,1.95,35.55
98694.2757144,1560.0,1.01,0.1,-0.07,0.98,1.59,35.37
98694.2774259,1561.0,1.04,0.1,-0.09,0.73,0.18,33.78
98694.2812027,1562.0,1.0,0.08,-0.06,-0.18,0.91,31.89
98694.2872132,1563.0,1.04,0.1,-0.08,-1.52,-0.73,29.51
98694.2892661,1564.0,1.03,0.09,-0.08,-2.99,0.3,26.4
98694.2983662,1565.0,1.04,0.1,-0.09,-4.94,0.61,22.93
98694.298586,1566.0,1.04,0.1,-0.08,-5.98,-0.43,18.84
98694.3057294,1567.0,1.04,0.09,-0.09,-7.32,0.18,14.51
98694.3074194,1568.0,1.04,0.09,-0.08,-8.6,-0.12,10.24
98694.3163637,1569.0,1.04,0.09,-0.07,-9.7,-0.43,5.85
98694.316567,1570.0,1.04,0.09,-0.06,-10.67,-0.43,1.59
98694.3238598,1571.0,1.04,0.09,-0.06,-11.65,-0.61,-2.13
98694.3247896,1572.0,1.03,0.08,-0.06,-11.83,-0.61,-6.16
98694.3353651,1573.0,1.03,0.08,-0.04,-11.52,-0.55,-9.45
98694.3356037,1574.0,1.03,0.09,-0.04,-11.1,-0.3,-12.13
98694.3428492,1575.0,1.02,0.1,-0.04,-10.24,-0.43,-14.63
98694.3444242,1576.0,1.02,0.11,-0.04,-9.51,-0.43,-16.34
98694.3451711,1577.0,1.02,0.13,-0.06,-8.54,-0.24,-18.11
98694.35387,1578.0,1.01,0.14,-0.06,-7.62,-0.3,-19.39
98694.3543884,1579.0,1.0,0.13,-0.06,-7.01,0.18,-19.88
98694.3610137,1580.0,1.0,0.14,-0.05,-6.65,-0.61,-20.37
98694.3631515,1581.0,0.99,0.15,-0.07,-5.55,-0.06,-20.12
98694.3724683,1582.0,0.99,0.15,-0.04,-5.3,-0.18,-19.94
98694.3726799,1583.0,0.98,0.15,-0.06,-4.39,0.55,-19.45
98694.3795244,1584.0,0.99,0.15,-0.06,-3.29,0.18,-18.35
98694.3811582,1585.0,0.98,0.14,-0.04,-2.56,0.61,-17.07
98694.390956,1586.0,0.97,0.14,-0.04,-2.01,0.37,-15.98
98694.391161,1587.0,0.97,0.14,-0.05,-1.65,1.16,-14.15
98694.3977973,1588.0,0.96,0.13,-0.06,-1.46,0.0,-12.62
98694.3994125,1589.0,0.98,0.13,-0.04,-1.46,0.61,-10.73
98694.4093052,1590.0,0.97,0.12,-0.03,-1.1,0.12,-8.66
98694.4095153,1591.0,0.98,0.12,-0.03,-1.46,0.49,-6.34
98694.4164479,1592.0,0.98,0.1,-0.01,-1.34,0.24,-3.84
98694.4182392,1593.0,0.96,0.11,-0.04,-1.16,0.85,-1.52
98694.4275343,1594.0,0.99,0.1,-0.03,-0.91,0.43,1.34
98694.4277579,1595.0,0.97,0.1,-0.04,-0.49,1.16,4.02
98694.4285269,1596.0,0.98,0.1,-0.03,0.49,0.85,6.65
98694.4345605,1597.0,0.97,0.15,-0.04,0.67,0.91,9.45
98694.4364717,1598.0,0.96,0.12,-0.03,1.28,1.16,13.17
98694.4454992,1599.0,0.96,0.11,-0.04,1.77,0.79,16.83
98694.4469584,1600.0,0.96,0.11,-0.03,1.77,1.16,20.67
98694.4564977,1601.0,0.97,0.1,-0.02,2.01,0.98,24.45
98694.4566987,1602.0,0.96,0.08,-0.02,1.95,1.34,28.72
98694.4637475,1603.0,0.97,0.08,-0.02,2.5,1.95,32.74
98694.4654637,1604.0,0.94,0.06,0.0,2.13,2.26,35.98
98694.4749319,1605.0,1.02,0.1,-0.02,2.62,0.79,40.12
98694.4751595,1606.0,0.93,0.11,-0.07,4.15,1.4,42.8
98694.4821923,1607.0,1.03,0.09,0.03,3.78,-0.3,45.85
98694.4837243,1608.0,0.97,0.09,-0.02,3.6,1.28,47.99
98694.4846223,1609.0,1.0,0.09,-0.02,3.23,0.79,48.78
98694.4938515,1610.0,0.97,0.07,-0.0,2.74,2.26,49.21
98694.4946542,1611.0,0.97,0.07,-0.02,1.59,0.43,48.66
98694.5011785,1612.0,1.03,0.07,-0.08,2.13,-2.87,47.99
98694.5028332,1613.0,1.06,0.05,-0.09,2.13,2.26,46.71
98694.5119714,1614.0,0.98,0.04,-0.1,1.28,2.01,43.66
98694.5121639,1615.0,1.07,0.03,-0.04,-0.24,1.46,40.12
98694.5192338,1616.0,1.02,0.02,-0.08,-1.83,1.95,35.3
98694.520992,1617.0,1.06,0.03,-0.1,-2.74,-0.43,31.28
98694.5302032,1618.0,1.08,0.04,-0.1,-3.84,-0.06,26.77
98694.530413,1619.0,1.06,0.03,-0.09,-5.0,0.3,21.83
98694.5376854,1620.0,1.03,0.04,-0.12,-6.28,1.16,17.2
98694.537953,1621.0,1.05,0.03,-0.07,-7.44,0.24,12.68
98694.5489686,1622.0,1.04,0.04,-0.07,-8.23,1.28,8.48
98694.5491747,1623.0,1.05,0.05,-0.08,-8.72,1.22,5.06
98694.5495109,1624.0,1.03,0.06,-0.1,-7.99,0.85,1.4
98694.5565224,1625.0,1.05,0.08,-0.07,-7.26,-0.37,-1.77
98694.5672669,1626.0,1.02,0.07,-0.06,-7.01,0.18,-4.63
98694.5674949,1627.0,1.02,0.07,-0.06,-6.52,0.55,-7.74
98694.5677127,1628.0,1.03,0.08,-0.05,-6.52,0.0,-10.79
98694.5751128,1629.0,1.03,0.08,-0.05,-6.34,0.18,-13.05
98694.5773307,1630.0,1.02,0.07,-0.04,-6.77,0.55,-15.06
98694.5860472,1631.0,1.02,0.06,-0.05,-6.52,-0.06,-17.2
98694.5862623,1632.0,1.02,0.06,-0.05,-6.4,-0.06,-18.9
98694.5935755,1633.0,1.02,0.05,-0.05,-6.28,0.3,-20.55
98694.5953071,1634.0,1.02,0.05,-0.04,-5.91,0.18,-21.71
98694.6050553,1635.0,1.01,0.07,-0.04,-5.55,0.12,-22.56
98694.6052678,1636.0,1.01,0.07,-0.04,-5.24,-0.06,-22.99
98694.6122337,1637.0,1.0,0.08,-0.05,-4.45,0.18,-23.66
98694.6140342,1638.0,1.0,0.08,-0.04,-4.21,0.3,-23.23
98694.6243485,1639.0,1.0,0.08,-0.05,-3.96,0.24,-23.17
98694.6245571,1640.0,1.0,0.1,-0.06,-3.72,0.0,-23.11
98694.6313523,1641.0,0.99,0.13,-0.06,-3.41,0.18,-22.56
98694.6323207,1642.0,0.99,0.14,-0.07,-2.99,0.24,-21.77
98694.633682,1643.0,0.99,0.14,-0.07,-2.2,0.0,-20.73
98694.6428416,1644.0,0.98,0.13,-0.08,-1.89,0.18,-19.88
98694.6432203,1645.0,1.0,0.12,-0.06,-2.13,0.0,-18.84
98694.6500154,1646.0,0.97,0.13,-0.07,-2.5,-0.98,-18.23
98694.652208,1647.0,1.01,0.12,-0.06,-3.17,-1.89,-17.5
98694.6615578,1648.0,0.97,0.11,-0.1,-3.54,0.18,-16.89
98694.6617698,1649.0,1.0,0.09,-0.1,-3.84,-0.91,-16.16
98694.6688191,1650.0,1.06,0.1,-0.06,-4.27,0.73,-15.61
98694.6700074,1651.0,0.99,0.11,-0.1,-4.33,0.73,-15.06
98694.6796151,1652.0,1.01,0.1,-0.07,-4.57,-0.85,-14.82
98694.6798723,1653.0,1.0,0.11,-0.07,-4.88,0.06,-14.76
98694.6873062,1654.0,0.98,0.08,-0.07,-5.24,-1.52,-15.0
98694.6890689,1655.0,1.02,0.07,-0.05,-5.61,1.1,-14.76
98694.6926516,1656.0,0.99,0.08,-0.07,-6.34,-1.77,-15.3
98694.6983365,1657.0,0.99,0.1,-0.07,-7.44,2.38,-16.4
98694.6991998,1658.0,0.95,0.11,-0.09,-7.68,-1.1,-17.01
98694.7054702,1659.0,1.01,0.09,-0.08,-7.56,-0.91,-17.87
98694.7158187,1660.0,1.05,0.09,-0.06,-7.93,0.18,-18.23
98694.7160355,1661.0,0.96,0.1,-0.13,-7.32,1.59,-19.88
98694.7165344,1662.0,1.07,0.12,-0.07,-7.01,-1.28,-21.16
98694.723973,1663.0,1.04,0.11,-0.07,-6.65,0.91,-22.2
98694.7345027,1664.0,1.08,0.12,-0.02,-6.65,-0.49,-22.01
98694.7347188,1665.0,0.98,0.1,-0.08,-6.89,0.79,-23.11
98694.7349427,1666.0,1.03,0.1,-0.03,-6.83,-0.12,-24.39
98694.7403616,1667.0,1.0,0.11,-0.04,-7.13,-2.8,-25.61
98694.746187,1668.0,1.0,0.11,-0.05,-7.44,-0.49,-25.79
98694.7533474,1669.0,1.11,0.08,0.01,-7.8,1.16,-24.63
98694.754621,1670.0,1.04,0.1,-0.03,-8.35,-0.06,-24.02
98694.7587202,1671.0,0.94,0.1,-0.08,-8.23,-0.85,-25.06
98694.7644102,1672.0,1.07,0.1,-0.01,-8.41,-2.56,-25.06
98694.7649331,1673.0,1.01,0.12,-0.04,-8.17,0.06,-24.39
98694.7718073,1674.0,1.01,0.12,-0.02,-7.56,-1.59,-24.82
98694.7824043,1675.0,0.98,0.12,-0.01,-7.62,-1.4,-24.63
98694.782661,1676.0,0.98,0.11,-0.02,-6.71,-0.12,-24.21
98694.7828705,1677.0,1.01,0.11,-0.03,-5.91,-1.89,-23.17
98694.7938455,1678.0,0.99,0.12,-0.03,-4.76,0.91,-22.26
98694.7940836,1679.0,0.96,0.1,-0.03,-4.88,1.34,-21.28
98694.8008263,1680.0,1.01,0.09,0.0,-4.7,-2.13,-20.79
98694.8030763,1681.0,0.99,0.08,0.0,-4.94,1.59,-19.76
98694.8032774,1682.0,0.98,0.09,-0.01,-5.67,-0.18,-19.88
98694.8116938,1683.0,1.02,0.1,-0.03,-5.49,-0.24,-19.21
98694.8186838,1684.0,1.0,0.12,-0.04,-5.43,0.43,-19.09
98694.8197283,1685.0,1.02,0.13,-0.03,-5.06,-1.22,-18.9
98694.8238857,1686.0,1.05,0.15,-0.02,-5.61,-5.43,-17.62
98694.8293557,1687.0,1.05,0.15,-0.02,-5.85,-10.12,-16.16
98694.8315117,1688.0,1.05,0.15,-0.02,-6.46,-14.94,-14.57
98694.8400712,1689.0,1.05,0.14,-0.01,-6.1,-19.63,-12.93
98694.8407761,1690.0,1.04,0.12,-0.02,-6.1,-23.96,-10.79
98694.8471782,1691.0,1.02,0.12,-0.03,-5.98,-26.28,-9.21
98694.8486505,1692.0,1.01,0.18,-0.05,-5.43,-26.77,-8.05
98694.8579636,1693.0,1.02,0.16,-0.05,-5.3,-28.9,-6.59
98694.8581758,1694.0,1.03,0.15,-0.04,-5.85,-31.22,-4.94
98694.8650816,1695.0,1.04,0.16,-0.04,-5.98,-34.82,-3.29
98694.8684144,1696.0,1.04,0.15,-0.06,-6.52,-37.74,-1.95
98694.8769011,1697.0,1.02,0.16,-0.07,-6.4,-38.17,-0.85
98694.877139,1698.0,1.02,0.14,-0.06,-7.26,-40.0,-0.61
98694.8836622,1699.0,1.01,0.15,-0.06,-7.32,-41.65,0.3
98694.8854833,1700.0,1.0,0.15,-0.07,-7.5,-42.5,0.73
98694.8943051,1701.0,1.0,0.16,-0.07,-7.2,-43.48,0.98
98694.8945135,1702.0,0.99,0.16,-0.08,-6.95,-43.9,2.01
98694.9050269,1703.0,0.98,0.16,-0.08,-6.16,-43.9,2.32
98694.9052358,1704.0,0.97,0.15,-0.09,-5.79,-43.11,2.68
98694.9119877,1705.0,0.98,0.14,-0.1,-5.12,-42.32,3.23
98694.9137606,1706.0,0.99,0.14,-0.1,-4.15,-41.83,3.23
98694.9177629,1707.0,1.0,0.14,-0.1,-3.48,-41.95,3.41
98694.9238557,1708.0,1.01,0.14,-0.1,-2.99,-42.68,3.54
98694.9242689,1709.0,1.02,0.14,-0.11,-2.5,-44.02,3.84
98694.9309469,1710.0,1.01,0.14,-0.1,-2.13,-45.73,4.33
98694.9326601,1711.0,1.01,0.13,-0.1,-2.38,-47.13,4.7
98694.9416252,1712.0,1.01,0.14,-0.12,-2.07,-48.05,4.7
98694.9418865,1713.0,1.02,0.13,-0.11,-2.13,-48.84,5.06
98694.9520903,1714.0,1.01,0.14,-0.11,-1.89,-49.94,5.18
98694.9523178,1715.0,1.0,0.14,-0.11,-1.95,-50.73,5.37
98694.9592453,1716.0,1.01,0.16,-0.15,-1.65,-52.13,5.61
98694.9608716,1717.0,1.04,0.17,-0.15,-0.85,-54.76,6.65
98694.9701873,1718.0,1.05,0.17,-0.13,-0.49,-58.96,7.87
98694.9704002,1719.0,1.05,0.15,-0.14,-0.06,-63.72,9.45
98694.9770487,1720.0,1.04,0.14,-0.15,0.49,-68.29,11.1
98694.9787104,1721.0,1.03,0.14,-0.15,0.55,-71.34,12.2
98694.987767,1722.0,1.0,0.14,-0.18,0.73,-73.54,13.05
98694.9879814,1723.0,0.98,0.15,-0.18,1.04,-74.27,13.6
98694.9945666,1724.0,0.96,0.16,-0.23,1.65,-73.9,13.05
98694.9958752,1725.0,0.94,0.16,-0.22,1.71,-71.1,12.13
98695.0053199,1726.0,0.92,0.17,-0.19,0.79,-67.01,11.16
98695.0055563,1727.0,0.92,0.17,-0.22,0.18,-63.66,10.79
98695.0126476,1728.0,0.92,0.17,-0.23,0.43,-61.52,10.49
98695.0143107,1729.0,0.93,0.16,-0.24,0.43,-58.9,10.79
98695.0232572,1730.0,0.93,0.15,-0.24,0.73,-56.59,10.85
98695.023468,1731.0,0.93,0.16,-0.27,1.83,-54.88,10.55
98695.0299603,1732.0,0.92,0.15,-0.28,3.11,-52.26,10.3
98695.0315482,1733.0,0.94,0.15,-0.25,3.11,-48.9,10.43
98695.0403747,1734.0,0.94,0.14,-0.24,3.78,-47.62,10.24
98695.0405835,1735.0,0.95,0.13,-0.26,3.96,-46.71,10.24
98695.0474339,1736.0,0.95,0.13,-0.22,3.78,-44.15,10.55
98695.0492211,1737.0,0.95,0.12,-0.24,3.54,-42.99,10.06
98695.0581698,1738.0,0.95,0.11,-0.23,3.41,-41.1,9.82
98695.0583811,1739.0,0.93,0.11,-0.24,3.17,-39.02,8.72
98695.0651439,1740.0,0.92,0.12,-0.29,4.39,-37.01,7.56
98695.0666063,1741.0,0.9,0.13,-0.31,5.67,-33.41,6.4
98695.0760366,1742.0,0.9,0.12,-0.25,6.04,-28.54,5.49
98695.0762393,1743.0,0.92,0.12,-0.25,5.55,-24.57,4.51
98695.0829996,1744.0,0.94,0.11,-0.24,4.51,-21.04,4.27
98695.085272,1745.0,0.97,0.12,-0.21,3.72,-19.39,4.45
98695.0936409,1746.0,0.99,0.12,-0.2,2.68,-19.27,4.76
98695.0938537,1747.0,1.0,0.12,-0.19,1.22,-20.06,5.98
98695.1008584,1748.0,1.0,0.12,-0.22,0.12,-21.83,6.83
98695.1025852,1749.0,0.99,0.13,-0.23,-0.18,-23.11,7.26
98695.1114535,1750.0,1.0,0.14,-0.24,-0.55,-23.66,7.93
98695.1116602,1751.0,1.0,0.13,-0.23,-0.91,-25.49,8.72
98695.1184689,1752.0,1.0,0.13,-0.25,-1.1,-27.99,9.45
98695.1198447,1753.0,0.99,0.12,-0.26,-0.98,-30.12,10.55
98695.1290712,1754.0,0.97,0.11,-0.27,-1.4,-30.98,10.61
98695.1292927,1755.0,0.96,0.11,-0.27,-1.83,-30.43,10.67
98695.1363738,1756.0,0.94,0.11,-0.25,-2.87,-28.54,10.0
98695.1379446,1757.0,0.94,0.12,-0.26,-3.9,-26.22,9.63
98695.1467364,1758.0,0.94,0.11,-0.27,-4.7,-23.78,8.84
98695.1469469,1759.0,0.95,0.11,-0.29,-4.82,-22.38,8.35
98695.1540671,1760.0,0.95,0.11,-0.29,-4.76,-22.01,7.87
98695.1556977,1761.0,0.95,0.11,-0.3,-4.88,-20.37,7.32
98695.1647472,1762.0,0.94,0.11,-0.3,-5.06,-18.78,6.59
98695.1649554,1763.0,0.92,0.1,-0.31,-5.12,-15.73,5.79
98695.1672717,1764.0,0.9,0.11,-0.32,-5.24,-13.11,4.63
98695.1765674,1765.0,0.9,0.1,-0.32,-5.18,-8.17,3.05
98695.1767746,1766.0,0.9,0.11,-0.31,-5.12,-3.9,2.07
98695.1834954,1767.0,0.92,0.11,-0.31,-4.76,-0.67,0.61
98695.1851818,1768.0,0.94,0.11,-0.29,-4.33,1.28,-0.3
98695.1943229,1769.0,0.95,0.12,-0.3,-4.02,2.93,-0.61
98695.1945331,1770.0,0.95,0.12,-0.29,-3.6,3.96,-0.73
98695.2011839,1771.0,0.96,0.12,-0.3,-3.05,4.82,-1.4
98695.2029173,1772.0,0.96,0.1,-0.31,-2.38,4.94,-1.46
98695.2117774,1773.0,0.96,0.09,-0.34,-1.16,4.57,-1.71
98695.2119799,1774.0,0.96,0.09,-0.32,-0.18,4.27,-1.95
98695.2190997,1775.0,0.95,0.1,-0.31,0.73,5.3,-2.26
98695.2207043,1776.0,0.95,0.1,-0.3,0.85,6.1,-2.87
98695.2294262,1777.0,0.95,0.11,-0.29,0.98,6.52,-3.11
98695.2296413,1778.0,0.95,0.11,-0.28,0.98,7.5,-3.05
98695.2398585,1779.0,0.96,0.12,-0.27,0.24,7.74,-3.05
98695.2400707,1780.0,0.96,0.11,-0.28,0.24,8.48,-3.05
98695.2472147,1781.0,0.98,0.11,-0.28,-0.73,8.48,-3.11
98695.2488307,1782.0,1.01,0.12,-0.27,-0.91,6.34,-2.99
98695.24945,1783.0,1.04,0.12,-0.26,-1.46,2.2,-1.77
98695.2581403,1784.0,1.05,0.12,-0.25,-2.56,-3.9,-0.43
98695.2589835,1785.0,1.05,0.11,-0.24,-3.35,-8.9,0.67
98695.2649849,1786.0,1.02,0.12,-0.26,-4.57,-12.68,1.71
98695.266778,1787.0,0.99,0.12,-0.27,-5.37,-14.82,2.32
98695.276217,1788.0,0.98,0.12,-0.28,-5.73,-16.4,2.93
98695.27674,1789.0,0.97,0.12,-0.29,-5.79,-17.2,3.6
98695.2828731,1790.0,0.96,0.12,-0.29,-5.49,-17.13,3.78
98695.2843746,1791.0,0.94,0.12,-0.29,-5.12,-16.1,3.9
98695.2934556,1792.0,0.93,0.12,-0.3,-4.76,-14.63,3.84
98695.2951701,1793.0,0.94,0.12,-0.3,-4.45,-13.29,3.54
98695.3046128,1794.0,0.95,0.12,-0.3,-3.78,-11.95,3.54
98695.3048235,1795.0,0.95,0.12,-0.3,-3.66,-11.65,3.48
98695.311829,1796.0,0.95,0.12,-0.3,-3.48,-11.16,4.02
98695.3134625,1797.0,0.94,0.11,-0.31,-3.17,-10.3,3.72
98695.3226646,1798.0,0.94,0.11,-0.31,-3.11,-9.27,3.23
98695.3228831,1799.0,0.93,0.1,-0.31,-3.11,-7.07,2.74
98695.3292577,1800.0,0.93,0.11,-0.32,-3.29,-5.0,2.44
98695.3303539,1801.0,0.92,0.11,-0.32,-3.23,-2.8,1.65
98695.3400086,1802.0,0.95,0.11,-0.31,-2.99,-0.85,1.46
98695.3402142,1803.0,0.96,0.11,-0.31,-2.99,-0.67,1.4
98695.3466606,1804.0,0.97,0.11,-0.3,-2.99,-1.16,1.46
98695.3482646,1805.0,0.98,0.1,-0.31,-2.74,-2.74,2.26
98695.3571388,1806.0,0.98,0.09,-0.31,-1.89,-4.45,2.8
98695.3573413,1807.0,0.97,0.1,-0.31,-1.4,-5.49,3.23
98695.3595776,1808.0,0.96,0.11,-0.31,-1.4,-6.28,3.41
98695.3677229,1809.0,0.96,0.12,-0.3,-1.4,-6.52,3.35
98695.3751804,1810.0,0.97,0.13,-0.29,-1.52,-6.71,3.84
98695.3767963,1811.0,0.96,0.12,-0.3,-2.01,-7.2,4.09
98695.3773843,1812.0,0.95,0.12,-0.3,-1.95,-6.77,4.15
98695.3857807,1813.0,0.93,0.11,-0.32,-1.83,-4.94,3.6
98695.3866441,1814.0,0.91,0.1,-0.33,-1.71,-2.32,2.87
98695.3928155,1815.0,0.9,0.1,-0.33,-1.52,1.59,1.65
98695.3943566,1816.0,0.89,0.1,-0.33,-1.52,5.61,0.43
98695.4033837,1817.0,0.89,0.09,-0.33,-1.4,10.43,-0.98
98695.4035894,1818.0,0.89,0.09,-0.32,-1.59,14.76,-2.01
98695.4102751,1819.0,0.9,0.1,-0.33,-1.34,19.09,-3.17
98695.4121037,1820.0,0.9,0.09,-0.33,-1.1,22.56,-4.45
98695.4208973,1821.0,0.9,0.09,-0.34,-0.3,25.91,-5.73
98695.4211048,1822.0,0.89,0.08,-0.36,0.73,30.0,-6.71
98695.4286967,1823.0,0.87,0.08,-0.35,1.4,35.3,-8.29
98695.4379278,1824.0,0.84,0.08,-0.37,2.13,41.71,-10.06
98695.4381525,1825.0,0.81,0.07,-0.38,2.74,50.43,-11.46
98695.4383522,1826.0,0.78,0.07,-0.36,3.11,61.4,-13.35
98695.4484333,1827.0,0.76,0.1,-0.35,2.8,74.45,-15.73
98695.4486469,1828.0,0.79,0.11,-0.35,2.93,85.98,-18.48
98695.4556525,1829.0,0.81,0.12,-0.34,3.72,96.65,-20.73
98695.4571869,1830.0,0.82,0.12,-0.3,3.48,106.4,-23.05
98695.4660833,1831.0,0.84,0.12,-0.26,3.66,115.67,-25.18
98695.4662962,1832.0,0.86,0.13,-0.21,2.5,122.93,-26.89
98695.4731811,1833.0,0.89,0.13,-0.24,2.99,129.09,-27.56
98695.4748648,1834.0,0.89,0.13,-0.24,3.84,133.66,-28.96
98695.4837104,1835.0,0.88,0.13,-0.2,4.21,138.84,-29.82
98695.4839218,1836.0,0.89,0.14,-0.19,4.33,143.9,-29.21
98695.4909375,1837.0,0.88,0.14,-0.19,4.33,149.02,-29.33
98695.4929994,1838.0,0.87,0.14,-0.18,4.82,154.27,-28.35
98695.5016222,1839.0,0.91,0.15,-0.14,5.61,157.99,-26.77
98695.5018598,1840.0,0.95,0.16,-0.11,6.71,159.33,-24.15
98695.5125577,1841.0,1.02,0.16,-0.06,7.87,156.22,-21.04
98695.5127852,1842.0,1.07,0.17,-0.04,8.6,150.12,-16.95
98695.5198029,1843.0,1.16,0.16,0.02,9.15,141.34,-11.16
98695.521424,1844.0,1.18,0.15,0.04,9.39,127.2,-6.83
98695.5221526,1845.0,1.2,0.15,0.05,9.27,113.48,-2.44
98695.5306666,1846.0,1.21,0.14,0.05,8.17,99.09,1.83
98695.5310594,1847.0,1.2,0.13,0.06,6.1,85.37,5.18
98695.5377885,1848.0,1.18,0.14,0.03,4.15,72.68,7.93
98695.5481984,1849.0,1.17,0.13,0.04,1.28,61.4,10.12
98695.5484009,1850.0,1.15,0.12,0.04,-1.77,51.83,12.13
98695.5554209,1851.0,1.15,0.14,0.0,-4.21,42.5,14.09
98695.5572145,1852.0,1.09,0.14,-0.0,-6.22,34.02,15.37
98695.5604576,1853.0,1.03,0.13,0.01,-8.35,28.96,15.79
98695.5659308,1854.0,1.02,0.12,-0.04,-10.37,27.74,16.16
98695.568293,1855.0,0.99,0.13,-0.06,-11.4,27.07,15.98
98695.5771314,1856.0,0.97,0.13,-0.08,-11.89,29.02,15.49
98695.5778424,1857.0,0.97,0.13,-0.07,-12.74,31.65,16.52
98695.5837632,1858.0,1.07,0.19,0.04,-10.18,-12.62,21.4
98695.5859147,1859.0,1.24,0.17,0.02,-9.51,0.79,24.15
98695.59509,1860.0,0.84,0.12,-0.08,-9.82,3.6,24.63
98695.595766,1861.0,1.09,0.13,-0.06,-9.88,-2.2,24.02
98695.6021236,1862.0,1.07,0.12,-0.04,-9.76,-0.49,25.24
98695.6041148,1863.0,0.95,0.12,-0.07,-9.33,-0.3,25.98
98695.6128123,1864.0,0.98,0.12,-0.06,-8.84,0.24,26.22
98695.6133583,1865.0,0.99,0.11,-0.07,-8.66,-0.18,26.22
98695.6196425,1866.0,0.96,0.1,-0.05,-8.78,0.3,26.1
98695.621042,1867.0,1.01,0.11,-0.04,-8.54,-0.49,26.52
98695.6297271,1868.0,0.97,0.1,-0.07,-8.23,0.73,26.89
98695.6299313,1869.0,0.98,0.09,-0.05,-8.29,0.24,26.89
98695.6404133,1870.0,1.01,0.09,-0.05,-7.8,0.3,27.2
98695.6406199,1871.0,1.0,0.1,-0.05,-8.23,1.04,27.5
98695.647411,1872.0,0.99,0.1,-0.06,-7.68,-0.49,27.93
98695.6495201,1873.0,1.01,0.1,-0.05,-7.74,-0.49,27.38
98695.65796,1874.0,1.0,0.1,-0.08,-6.95,-0.06,27.8
98695.658173,1875.0,1.01,0.1,-0.08,-6.22,-0.06,27.2
98695.664932,1876.0,1.01,0.1,-0.09,-4.94,0.49,26.89
98695.6666155,1877.0,1.01,0.1,-0.1,-4.09,0.37,26.04
98695.6758569,1878.0,1.01,0.08,-0.09,-3.29,0.37,24.82
98695.6760791,1879.0,1.01,0.08,-0.08,-3.11,0.43,23.35
98695.6827214,1880.0,1.02,0.08,-0.08,-3.23,0.49,22.01
98695.6845172,1881.0,1.01,0.07,-0.07,-3.66,0.12,20.79
98695.6854294,1882.0,1.01,0.06,-0.05,-4.51,0.24,19.63
98695.6940263,1883.0,1.01,0.06,-0.05,-4.63,0.06,18.96
98695.6959408,1884.0,1.01,0.06,-0.06,-5.18,-0.18,18.35
98695.7044516,1885.0,1.01,0.07,-0.05,-5.37,0.06,17.93
98695.7046543,1886.0,1.01,0.07,-0.05,-5.43,-0.3,17.74
98695.7124571,1887.0,1.0,0.07,-0.05,-5.43,-0.37,17.74
98695.7132353,1888.0,1.01,0.07,-0.04,-5.0,-1.28,18.66
98695.7224203,1889.0,1.03,0.08,-0.03,-4.82,-3.6,20.0
98695.7226299,1890.0,1.03,0.08,-0.02,-4.7,-6.71,21.59
98695.7296366,1891.0,1.07,0.07,-0.0,-4.15,-11.4,22.68
98695.731202,1892.0,1.01,0.08,-0.03,-4.09,-13.72,23.84
98695.7406513,1893.0,1.04,0.07,-0.03,-3.9,-16.89,24.94
98695.7408662,1894.0,1.01,0.06,-0.05,-3.78,-18.78,25.73
98695.7474338,1895.0,1.01,0.05,-0.06,-3.72,-18.66,26.04
98695.7489717,1896.0,0.99,0.05,-0.07,-4.15,-17.56,25.0
98695.7584727,1897.0,0.87,0.05,-0.12,-3.78,-10.3,24.33
98695.758686,1898.0,0.89,0.05,-0.11,-3.66,-1.83,22.87
98695.7693729,1899.0,0.89,0.05,-0.1,-3.6,5.12,21.95
98695.7695923,1900.0,0.94,0.06,-0.07,-3.11,9.88,21.71
98695.7697924,1901.0,0.99,0.07,-0.06,-2.44,11.46,22.62
98695.7763254,1902.0,1.01,0.06,-0.04,-1.4,10.18,24.02
98695.7876494,1903.0,1.04,0.06,-0.04,-0.61,7.93,25.12
98695.7878677,1904.0,1.07,0.06,-0.03,0.0,4.39,26.46
98695.7880602,1905.0,1.06,0.05,-0.02,0.37,0.24,27.8
98695.7946397,1906.0,1.4,0.09,-0.02,0.55,-9.45,31.34
98695.7997514,1907.0,1.08,0.03,-0.0,-0.85,-54.94,34.33
98695.8055679,1908.0,0.59,0.08,-0.45,0.49,-24.21,32.26
98695.8057763,1909.0,1.28,-0.02,0.2,-1.34,-43.96,34.51
98695.8122777,1910.0,0.83,-0.02,-0.18,-1.95,-23.72,30.79
98695.8229041,1911.0,1.21,-0.0,0.08,-3.9,-31.77,30.18
98695.8231275,1912.0,0.89,-0.02,-0.11,-4.09,-23.05,28.23
98695.8233417,1913.0,1.03,0.0,-0.04,-5.12,-28.6,27.62
98695.8336015,1914.0,0.94,-0.06,-0.13,-5.61,-15.24,20.06
98695.8338254,1915.0,0.94,-0.08,-0.13,-6.1,-7.56,10.12
98695.8409287,1916.0,0.89,-0.07,-0.21,-4.63,8.66,3.96
98695.8430375,1917.0,0.98,-0.03,-0.11,-3.48,15.91,1.34
98695.851362,1918.0,1.04,0.01,-0.05,-3.35,11.59,0.85
98695.8515717,1919.0,1.05,0.02,-0.02,-3.84,4.76,1.22
98695.8589639,1920.0,1.03,0.03,-0.04,-4.76,-0.24,2.5
98695.8607489,1921.0,1.02,0.04,-0.07,-5.43,-1.71,3.11
98695.8698972,1922.0,0.99,0.04,-0.1,-5.49,-0.49,3.35
98695.8701069,1923.0,0.99,0.02,-0.1,-5.49,1.71,3.35
98695.8717861,1924.0,0.99,0.02,-0.1,-5.55,4.82,4.33
98695.8804091,1925.0,1.0,0.01,-0.09,-4.94,6.22,4.76
98695.8806099,1926.0,1.01,0.01,-0.07,-4.09,6.52,5.12
98695.8873704,1927.0,1.01,-0.0,-0.07,-3.6,6.65,5.3
98695.8895583,1928.0,1.0,0.0,-0.06,-3.35,7.07,5.06
98695.8979592,1929.0,1.0,0.0,-0.07,-2.99,6.89,4.82
98695.89816,1930.0,1.0,-0.0,-0.04,-2.93,6.34,4.45
98695.9050804,1931.0,1.01,0.01,-0.05,-3.66,5.73,4.88
98695.9067979,1932.0,1.01,0.02,-0.05,-4.51,6.28,5.61
98695.915762,1933.0,1.0,0.04,-0.11,-4.57,7.32,6.59
98695.9159607,1934.0,0.98,0.04,-0.12,-4.02,10.79,8.05
98695.9228434,1935.0,0.96,0.03,-0.12,-4.15,16.83,9.45
98695.9247,1936.0,0.96,0.02,-0.12,-3.96,23.72,11.52
98695.9338033,1937.0,0.96,0.01,-0.12,-3.54,31.34,13.66
98695.9340111,1938.0,0.97,0.01,-0.1,-3.23,38.05,15.24
98695.9455789,1939.0,0.97,0.01,-0.09,-2.8,43.35,16.46
98695.9457895,1940.0,1.01,-0.0,-0.05,-1.95,45.85,16.1
98695.9526969,1941.0,1.03,-0.01,-0.03,-1.34,41.52,14.45
98695.9529762,1942.0,1.06,-0.01,-0.0,-1.1,32.8,12.5
98695.9546698,1943.0,1.06,-0.01,0.01,-1.59,22.93,10.24
98695.9649783,1944.0,1.06,-0.0,0.02,-2.38,13.17,8.41
98695.9651906,1945.0,1.04,-0.0,0.0,-2.68,5.67,6.77
98695.9725519,1946.0,1.03,-0.0,-0.01,-2.68,1.16,5.98
98695.9737129,1947.0,1.02,-0.0,-0.01,-2.5,-1.52,5.91
98695.9838962,1948.0,1.02,0.0,-0.02,-1.04,-3.29,6.52
98695.9840989,1949.0,1.01,0.0,-0.02,0.67,-4.21,6.71
98695.9911871,1950.0,1.0,0.02,-0.04,2.01,-4.27,7.44
98695.9913939,1951.0,1.0,0.02,-0.06,4.57,-3.29,8.05
98696.0016676,1952.0,0.77,-0.13,-0.13,3.6,31.1,-3.96
98696.0018948,1953.0,1.09,-0.05,0.22,6.4,4.57,2.93
98696.0021344,1954.0,0.85,0.01,0.15,6.65,4.27,3.54
98696.0090038,1955.0,1.15,0.03,-0.14,4.82,14.27,2.74
98696.0201369,1956.0,1.0,-0.02,-0.17,1.46,22.13,2.5
98696.0203443,1957.0,0.93,-0.01,-0.09,-0.73,23.17,3.23
98696.0205522,1958.0,1.18,-0.17,0.26,-5.43,17.26,-0.55
98696.0273115,1959.0,0.21,-0.18,-0.39,-7.38,14.88,-4.27
98696.0378715,1960.0,1.27,0.02,0.33,-5.91,-16.83,0.37
98696.0380937,1961.0,1.36,0.09,0.11,-5.3,2.68,2.2
98696.0382863,1962.0,0.77,-0.06,-0.36,-4.09,9.7,-1.22
98696.0448124,1963.0,1.02,0.02,-0.14,-3.66,-7.74,-0.98
98696.0553092,1964.0,1.16,0.01,0.13,-3.54,0.3,-0.06
98696.0555563,1965.0,0.9,0.01,-0.18,-3.6,6.59,-0.06
98696.0557576,1966.0,0.89,-0.02,-0.11,-3.72,-4.94,-0.55
98696.0623722,1967.0,1.09,-0.01,0.08,-3.78,-0.55,-0.98
98696.0641211,1968.0,0.97,0.01,-0.12,-3.72,4.57,0.0
98696.073208,1969.0,1.05,-0.0,0.0,-3.54,-2.74,0.24
98696.0734121,1970.0,1.03,-0.01,0.03,-3.48,-1.04,-0.55
98696.0806994,1971.0,0.95,-0.0,-0.1,-3.48,3.17,-0.37
98696.0825415,1972.0,1.02,-0.01,-0.04,-3.9,-0.85,-0.12
98696.0922154,1973.0,1.06,-0.0,0.02,-3.84,-1.34,-0.3
98696.0924296,1974.0,1.0,-0.0,-0.06,-3.9,2.32,-0.37
98696.0991056,1975.0,0.98,-0.01,-0.06,-3.66,0.43,-0.24
98696.100914,1976.0,1.03,-0.01,-0.01,-3.84,-1.04,-0.43
98696.1106127,1977.0,1.0,-0.01,-0.04,-3.54,1.1,-0.49
98696.1108399,1978.0,0.99,-0.01,-0.07,-3.54,0.98,0.06
98696.1110403,1979.0,1.02,-0.01,-0.03,-3.78,-0.61,0.0
98696.1214764,1980.0,1.02,-0.0,-0.03,-3.96,0.61,-0.12
98696.1216984,1981.0,0.99,-0.01,-0.07,-3.66,1.16,-0.37
98696.128663,1982.0,1.0,-0.01,-0.04,-3.78,-0.12,0.06
98696.1303103,1983.0,1.01,-0.01,-0.02,-3.72,0.3,-0.49
98696.1395623,1984.0,0.99,-0.0,-0.05,-3.6,0.85,-0.18
98696.1397754,1985.0,1.0,-0.01,-0.05,-3.72,0.12,-0.3
98696.1463994,1986.0,1.02,-0.01,-0.03,-3.54,0.3,-0.55
98696.1481679,1987.0,1.0,-0.0,-0.05,-3.9,1.04,-0.06
98696.1490095,1988.0,1.0,-0.01,-0.05,-3.9,0.61,-0.37
98696.1574855,1989.0,1.01,-0.01,-0.03,-3.72,0.12,-0.18
98696.1597812,1990.0,1.0,-0.01,-0.04,-3.9,1.04,-0.24
98696.1680581,1991.0,1.0,-0.01,-0.05,-3.66,0.43,-0.24
98696.1682695,1992.0,1.01,-0.0,-0.04,-3.78,0.61,-0.37
98696.1759064,1993.0,1.01,-0.01,-0.04,-3.84,0.73,-0.12
98696.1775933,1994.0,1.0,-0.01,-0.04,-3.84,0.85,-0.61
98696.1868318,1995.0,1.01,-0.01,-0.04,-3.54,0.67,-0.24
98696.1870358,1996.0,1.0,-0.01,-0.04,-3.6,0.73,-0.24
98696.1937898,1997.0,1.0,-0.01,-0.04,-3.78,0.85,-0.18
98696.1954244,1998.0,1.0,-0.01,-0.04,-3.78,0.79,-0.55
98696.2045525,1999.0,1.01,-0.01,-0.04,-3.72,0.79,-0.24
98696.2047598,2000.0,1.01,-0.01,-0.04,-3.84,0.61,-0.12
98696.2113681,2001.0,1.01,-0.0,-0.03,-3.84,0.79,-0.12
98696.2130582,2002.0,1.01,-0.0,-0.04,-3.72,0.67,-0.37
98696.2221802,2003.0,1.01,-0.01,-0.04,-3.54,1.28,-0.24
98696.222399,2004.0,1.01,-0.01,-0.04,-3.6,0.67,-0.24
98696.2252722,2005.0,1.01,-0.01,-0.04,-4.09,0.91,-0.06
98696.2331381,2006.0,1.0,-0.01,-0.04,-3.78,0.98,-0.18
98696.2333457,2007.0,1.0,-0.0,-0.04,-3.78,0.98,-0.18
98696.2402703,2008.0,1.01,-0.01,-0.03,-3.78,0.73,-0.18
98696.2422509,2009.0,1.01,-0.0,-0.04,-3.78,0.98,-0.24
98696.2506757,2010.0,1.01,-0.01,-0.04,-3.72,0.73,-0.06
98696.2508861,2011.0,1.0,-0.0,-0.04,-3.78,0.79,0.24
98696.2579836,2012.0,1.0,-0.01,-0.04,-3.66,0.91,-0.24
98696.2596017,2013.0,1.0,-0.01,-0.04,-3.72,0.73,-0.24
98696.2686181,2014.0,1.0,-0.0,-0.04,-3.84,0.67,-0.06
98696.268847,2015.0,1.01,-0.0,-0.04,-3.66,0.67,-0.3
98696.2757809,2016.0,1.0,-0.01,-0.03,-3.72,0.79,-0.3
98696.2775339,2017.0,1.01,-0.01,-0.04,-3.78,0.91,0.0
98696.2868745,2018.0,1.0,-0.01,-0.04,-3.6,0.98,-0.61
98696.2870954,2019.0,1.0,-0.0,-0.04,-3.66,0.73,-0.12
98696.2875779,2020.0,1.01,-0.01,-0.04,-3.72,0.61,-0.43
98696.2978802,2021.0,1.0,-0.0,-0.04,-3.72,0.79,-0.12
98696.2980913,2022.0,1.01,-0.01,-0.04,-3.66,0.61,-0.3
98696.3049398,2023.0,1.0,-0.01,-0.04,-3.66,0.55,-0.12
98696.3067998,2024.0,1.0,-0.0,-0.04,-3.72,0.49,-0.18
98696.3156735,2025.0,1.01,-0.01,-0.04,-3.54,0.55,-0.12
98696.3158831,2026.0,1.01,-0.01,-0.04,-3.66,0.24,-0.3
98696.322819,2027.0,1.0,-0.0,-0.04,-3.78,0.79,-0.12
98696.3245351,2028.0,1.0,-0.01,-0.03,-3.78,0.49,-0.43
98696.3331273,2029.0,1.01,-0.0,-0.05,-3.72,0.24,-0.3
98696.3333391,2030.0,1.0,-0.0,-0.03,-3.78,0.43,-0.18
98696.3441294,2031.0,1.01,-0.0,-0.04,-3.66,0.55,-0.18
98696.3443412,2032.0,0.99,-0.01,-0.04,-3.78,0.67,-0.43
98696.3510334,2033.0,1.02,-0.01,-0.03,-3.9,0.55,-0.3
98696.3527336,2034.0,1.02,-0.0,-0.03,-3.6,0.67,-0.18
98696.3532838,2035.0,1.01,-0.01,-0.03,-3.9,0.85,-0.3
98696.3616407,2036.0,1.0,-0.01,-0.04,-3.66,0.37,-0.24
98696.368553,2037.0,1.0,-0.01,-0.04,-3.96,0.55,-0.24
98696.3687657,2038.0,1.0,-0.0,-0.03,-3.6,0.61,0.06
98696.370982,2039.0,1.01,-0.0,-0.04,-3.78,0.49,-0.18
98696.3793131,2040.0,1.01,-0.01,-0.04,-3.72,0.61,-0.43
98696.3862176,2041.0,1.01,-0.0,-0.04,-3.78,0.67,-0.3
98696.3864267,2042.0,1.01,-0.01,-0.04,-3.66,0.61,-0.37
98696.388103,2043.0,1.0,-0.0,-0.04,-3.72,0.49,-0.3
98696.3972547,2044.0,1.0,-0.0,-0.04,-3.84,0.24,-0.43
98696.3987113,2045.0,1.0,-0.01,-0.04,-3.78,0.24,-0.24
98696.4082013,2046.0,1.01,-0.01,-0.04,-3.72,0.61,-0.3
98696.4084139,2047.0,1.01,-0.01,-0.04,-4.15,0.24,-0.37
98696.4089332,2048.0,1.01,-0.01,-0.04,-3.9,0.61,-0.3
98696.4167481,2049.0,1.0,-0.01,-0.04,-3.78,0.37,-0.3
98696.4273318,2050.0,1.01,-0.0,-0.04,-3.78,0.18,0.0
98696.4275405,2051.0,1.01,-0.01,-0.03,-3.78,0.06,-0.37
98696.4277452,2052.0,1.01,-0.01,-0.03,-3.6,0.18,-0.12
98696.4342785,2053.0,1.01,-0.01,-0.04,-3.66,0.0,-0.18
98696.4361739,2054.0,1.0,-0.01,-0.04,-3.72,0.0,-0.18
98696.4449025,2055.0,1.0,-0.01,-0.03,-3.48,0.55,-0.3
98696.445116,2056.0,1.01,-0.01,-0.04,-3.6,0.49,-0.18
98696.4522266,2057.0,1.01,-0.0,-0.04,-3.72,0.24,-0.3
98696.4536763,2058.0,1.0,-0.0,-0.04,-3.84,0.0,-0.37
98696.462943,2059.0,1.01,-0.01,-0.04,-3.78,0.37,-0.55
98696.4631536,2060.0,1.01,-0.0,-0.03,-3.78,0.24,-0.24
98696.4676082,2061.0,1.0,-0.0,-0.04,-3.66,-0.12,-0.24
98696.4750678,2062.0,1.0,-0.01,-0.04,-3.6,0.3,-0.3
98696.4752926,2063.0,1.0,-0.01,-0.04,-3.9,-0.06,-0.37
98696.4822266,2064.0,1.0,-0.0,-0.03,-3.84,0.06,-0.06
98696.484311,2065.0,1.0,-0.01,-0.04,-3.84,0.12,-0.43
98696.4935753,2066.0,1.01,-0.0,-0.04,-3.9,0.12,-0.37
98696.4937809,2067.0,1.0,-0.01,-0.04,-3.9,-0.3,-0.49
98696.4958699,2068.0,1.01,-0.01,-0.04,-3.84,-0.12,-0.43
98696.5052142,2069.0,1.01,-0.01,-0.04,-3.9,0.06,-0.3
98696.5054225,2070.0,1.01,-0.01,-0.04,-3.41,0.18,-0.49
98696.512897,2071.0,1.01,-0.01,-0.04,-3.72,0.12,-0.24
98696.5146359,2072.0,1.01,-0.01,-0.03,-3.66,0.3,-0.37
98696.5237264,2073.0,1.01,-0.01,-0.04,-3.72,0.3,-0.49
98696.5239365,2074.0,1.01,-0.01,-0.04,-3.78,0.06,-0.37
98696.5307081,2075.0,1.0,-0.01,-0.04,-3.72,0.37,-0.37
98696.532558,2076.0,1.0,-0.0,-0.04,-3.6,0.0,-0.12
98696.54136,2077.0,1.01,-0.01,-0.03,-3.96,0.24,-0.3
98696.5415748,2078.0,1.0,-0.01,-0.04,-3.78,0.37,-0.49
98696.5437067,2079.0,1.0,-0.01,-0.03,-3.78,0.55,-0.24
98696.5525243,2080.0,1.01,-0.01,-0.04,-3.78,0.12,-0.06
98696.5533539,2081.0,1.01,-0.01,-0.04,-3.9,0.24,-0.3
98696.5596761,2082.0,1.01,-0.01,-0.05,-3.84,0.49,-0.3
98696.5612204,2083.0,1.0,-0.01,-0.03,-3.54,0.3,0.06
98696.5702727,2084.0,1.0,-0.0,-0.04,-3.54,0.24,-0.18
98696.5706689,2085.0,1.01,-0.01,-0.04,-4.09,0.12,-0.18
98696.5770424,2086.0,1.0,-0.01,-0.04,-3.66,0.24,-0.24
98696.5784915,2087.0,1.0,-0.01,-0.04,-3.84,0.3,-0.43
98696.5874111,2088.0,1.01,-0.0,-0.04,-3.84,-0.06,-0.3
98696.5879058,2089.0,1.01,-0.01,-0.03,-3.84,0.24,-0.12
98696.5940778,2090.0,1.0,-0.01,-0.04,-3.84,0.18,0.0
98696.5955673,2091.0,1.0,-0.0,-0.04,-3.78,0.06,-0.37
98696.6047884,2092.0,1.01,-0.0,-0.04,-3.72,0.12,-0.24
98696.6052328,2093.0,1.01,-0.0,-0.04,-3.72,0.06,0.06
98696.6115945,2094.0,1.0,-0.0,-0.04,-3.72,0.18,-0.37
98696.6132645,2095.0,1.01,-0.0,-0.04,-3.72,0.24,-0.06
98696.6220893,2096.0,1.0,-0.01,-0.04,-3.66,-0.12,-0.3
98696.6225135,2097.0,1.01,-0.0,-0.04,-3.72,0.24,-0.3
98696.6328536,2098.0,1.0,-0.01,-0.04,-3.84,0.24,-0.24
98696.6330639,2099.0,1.0,-0.0,-0.03,-3.72,0.0,-0.37
98696.6335463,2100.0,1.01,-0.01,-0.04,-3.6,-0.06,-0.37
98696.6401577,2101.0,1.0,-0.01,-0.04,-3.84,0.18,-0.37
98696.6505873,2102.0,1.01,-0.01,-0.04,-3.6,0.06,-0.24
98696.6507982,2103.0,1.01,-0.0,-0.04,-3.72,0.06,-0.18
98696.6510052,2104.0,1.0,-0.01,-0.04,-3.78,0.12,-0.3
98696.6578789,2105.0,1.01,-0.0,-0.03,-3.48,0.18,-0.37
98696.6768387,2106.0,1.0,-0.01,-0.04,-3.78,0.12,-0.18
98696.6771495,2107.0,1.0,-0.01,-0.04,-3.72,0.24,-0.49
98696.6788612,2108.0,1.01,-0.0,-0.03,-3.78,0.37,-0.18
98696.6794714,2109.0,1.0,-0.0,-0.04,-3.78,-0.06,-0.3
98696.6878955,2110.0,1.01,-0.01,-0.04,-3.66,-0.06,-0.37
98696.6881153,2111.0,1.0,-0.01,-0.03,-3.78,0.0,-0.18
98696.6883251,2112.0,1.0,-0.01,-0.04,-3.9,0.24,-0.24
98696.6947226,2113.0,1.0,-0.01,-0.04,-3.48,0.3,-0.43
98696.6967598,2114.0,1.0,-0.01,-0.04,-3.66,-0.12,-0.43
98696.7052269,2115.0,1.01,-0.01,-0.04,-3.78,-0.06,-0.3
98696.7054822,2116.0,1.01,-0.01,-0.03,-3.6,0.0,-0.37
98696.7124642,2117.0,1.0,-0.0,-0.04,-3.78,0.12,-0.43
98696.7139409,2118.0,1.0,-0.01,-0.03,-3.6,-0.06,-0.18
98696.7241613,2119.0,1.0,-0.01,-0.04,-3.84,0.12,-0.24
98696.7243678,2120.0,1.01,-0.0,-0.04,-3.48,0.06,-0.37
98696.7313066,2121.0,1.0,-0.0,-0.04,-3.66,0.18,-0.43
98696.7330518,2122.0,1.01,-0.0,-0.03,-3.48,0.06,-0.18
98696.7336646,2123.0,1.0,-0.01,-0.05,-3.72,0.3,-0.43
98696.7426321,2124.0,1.01,-0.01,-0.04,-3.78,0.37,-0.24
98696.7431587,2125.0,1.0,-0.01,-0.04,-3.6,0.49,-0.12
98696.7494758,2126.0,1.0,-0.0,-0.04,-3.84,0.18,-0.37
98696.751263,2127.0,1.0,-0.01,-0.04,-3.66,0.37,-0.3
98696.7600269,2128.0,1.0,-0.01,-0.04,-3.9,0.37,0.06
98696.7604827,2129.0,1.01,-0.0,-0.03,-3.9,0.06,-0.24
98696.7666924,2130.0,1.01,-0.0,-0.04,-3.72,0.18,-0.18
98696.7683023,2131.0,1.01,-0.01,-0.04,-3.6,0.24,-0.24
98696.7772807,2132.0,1.01,-0.01,-0.04,-3.72,0.18,0.0
98696.7780194,2133.0,1.0,-0.01,-0.04,-3.6,0.18,-0.37
98696.784253,2134.0,1.0,-0.0,-0.04,-3.72,0.24,-0.55
98696.7859561,2135.0,1.01,-0.01,-0.04,-3.9,-0.18,-0.37
98696.7950806,2136.0,1.0,-0.01,-0.04,-3.41,0.06,-0.12
98696.7952867,2137.0,1.01,-0.01,-0.04,-3.6,0.0,-0.24
98696.8016531,2138.0,1.01,-0.01,-0.04,-3.54,0.18,-0.12
98696.8034185,2139.0,1.0,-0.01,-0.03,-3.6,0.24,-0.24
98696.8129204,2140.0,1.01,-0.0,-0.04,-3.54,0.0,-0.37
98696.8131313,2141.0,1.0,-0.0,-0.04,-3.48,0.37,-0.3
98696.8196208,2142.0,1.01,-0.01,-0.04,-3.96,-0.24,-0.43
98696.8212349,2143.0,1.01,-0.01,-0.04,-3.66,0.06,-0.37
98696.830386,2144.0,1.0,-0.0,-0.04,-3.9,0.12,-0.37
98696.8305925,2145.0,1.01,-0.0,-0.04,-3.54,0.24,-0.37
98696.8410071,2146.0,1.01,-0.01,-0.03,-3.66,0.3,-0.37
98696.8412319,2147.0,1.01,-0.01,-0.04,-3.66,0.18,-0.55
98696.8479998,2148.0,1.01,-0.01,-0.04,-3.54,0.49,-0.43
98696.8497046,2149.0,1.0,-0.0,-0.04,-3.66,0.43,-0.49
98696.858815,2150.0,1.01,-0.0,-0.03,-4.02,0.12,-0.3
98696.8590232,2151.0,1.01,-0.0,-0.04,-3.6,0.18,-0.24
98696.865834,2152.0,1.01,-0.01,-0.04,-3.72,0.0,-0.18
98696.8674841,2153.0,1.01,-0.01,-0.04,-3.9,0.0,-0.55
98696.8681154,2154.0,1.01,-0.01,-0.04,-3.72,0.3,-0.43
98696.8765829,2155.0,1.0,-0.01,-0.04,-3.66,0.24,-0.06
98696.8832965,2156.0,1.01,-0.01,-0.04,-3.66,0.3,-0.12
98696.8848544,2157.0,1.01,-0.01,-0.03,-3.6,0.0,-0.37
98696.8855518,2158.0,1.0,-0.0,-0.04,-3.78,0.12,-0.37
98696.8943211,2159.0,1.01,-0.0,-0.04,-3.84,0.18,-0.12
98696.895392,2160.0,1.01,-0.01,-0.04,-3.66,0.24,-0.3
98696.9050825,2161.0,1.01,-0.01,-0.04,-3.66,0.0,-0.18
98696.9052907,2162.0,1.0,-0.0,-0.04,-3.78,0.0,-0.24
98696.9060358,2163.0,1.0,-0.0,-0.04,-3.72,0.18,-0.37
98696.9140701,2164.0,1.0,-0.01,-0.04,-3.72,0.18,-0.3
98696.9240991,2165.0,1.0,-0.01,-0.04,-3.84,-0.18,-0.43
98696.9243135,2166.0,1.01,-0.01,-0.04,-3.66,-0.06,-0.37
98696.9245461,2167.0,1.01,-0.01,-0.04,-3.66,0.0,-0.12
98696.9319265,2168.0,1.0,-0.0,-0.04,-3.78,0.18,-0.06
98696.933381,2169.0,1.01,-0.01,-0.04,-3.66,0.24,-0.18
98696.9421977,2170.0,1.01,-0.01,-0.03,-3.66,-0.06,-0.61
98696.9424064,2171.0,1.01,-0.01,-0.04,-3.72,0.12,-0.12
98696.9528053,2172.0,1.0,-0.0,-0.04,-3.72,0.12,-0.43
98696.9530138,2173.0,1.01,-0.01,-0.04,-3.6,0.24,-0.37
98696.9600243,2174.0,1.01,-0.0,-0.04,-3.66,0.12,-0.24
98696.9618864,2175.0,1.01,-0.01,-0.04,-3.84,0.0,-0.49
98696.9707265,2176.0,1.01,-0.01,-0.04,-3.84,0.06,-0.18
98696.9709351,2177.0,1.01,-0.0,-0.03,-3.72,0.18,-0.06
98696.9713449,2178.0,1.0,-0.0,-0.04,-3.96,0.37,-0.18
98696.9785217,2179.0,1.0,-0.01,-0.03,-3.72,0.43,-0.37
98696.9896967,2180.0,1.01,-0.01,-0.04,-3.6,0.3,-0.12
98696.9899056,2181.0,1.01,-0.01,-0.03,-3.72,0.43,-0.24
98696.9901107,2182.0,1.01,-0.01,-0.03,-3.72,0.3,-0.24
98697.0007766,2183.0,1.0,-0.01,-0.04,-3.6,0.37,-0.3
98697.0009881,2184.0,1.01,-0.01,-0.03,-3.6,0.18,-0.37
98697.0078678,2185.0,1.01,-0.0,-0.04,-3.84,0.61,-0.24
98697.0095098,2186.0,1.01,-0.01,-0.04,-3.66,0.12,-0.24
98697.0097195,2187.0,1.0,-0.01,-0.04,-3.9,0.67,0.0
98697.0191452,2188.0,1.0,-0.01,-0.04,-3.84,0.43,-0.3
98697.0197146,2189.0,1.01,-0.01,-0.04,-3.6,0.3,-0.18
98697.0264414,2190.0,1.01,-0.0,-0.04,-3.78,0.24,-0.55
98697.0281934,2191.0,1.0,-0.0,-0.04,-3.54,0.3,0.0
98697.0373825,2192.0,1.0,-0.01,-0.04,-3.9,0.49,-0.12
98697.0375941,2193.0,1.0,-0.0,-0.03,-3.72,0.43,-0.24
98697.0442433,2194.0,1.01,-0.01,-0.04,-3.66,0.61,-0.12
98697.0459895,2195.0,1.01,-0.01,-0.04,-3.66,0.18,-0.37
98697.0555715,2196.0,1.0,-0.01,-0.04,-3.72,0.3,-0.43
98697.0557762,2197.0,1.0,-0.0,-0.04,-3.72,0.49,-0.3
98697.0665735,2198.0,1.01,-0.0,-0.04,-3.84,0.3,-0.37
98697.0667831,2199.0,1.01,-0.01,-0.04,-3.6,0.12,-0.3
98697.0680185,2200.0,1.0,-0.0,-0.04,-3.78,-0.18,-0.06
98697.0748948,2201.0,1.0,-0.01,-0.03,-3.66,-0.12,-0.37
98697.0766389,2202.0,1.01,-0.01,-0.04,-3.54,0.18,-0.24
98697.0857076,2203.0,1.01,-0.0,-0.04,-3.78,0.18,-0.12
98697.0859342,2204.0,1.0,-0.0,-0.04,-3.72,0.3,-0.55
98697.0966745,2205.0,1.02,-0.01,-0.03,-3.6,0.24,-0.24
98697.0968905,2206.0,1.01,-0.01,-0.04,-3.84,0.06,-0.3
98697.0971095,2207.0,0.99,-0.01,-0.03,-3.84,0.12,-0.61
98697.1049322,2208.0,1.0,-0.0,-0.04,-3.66,0.3,-0.43
98697.1069168,2209.0,0.99,-0.01,-0.04,-3.84,0.18,-0.67
98697.1161315,2210.0,1.01,-0.0,-0.04,-3.96,0.18,-0.37
98697.1163394,2211.0,1.02,-0.0,-0.04,-3.72,0.18,-0.24
98697.1238316,2212.0,1.01,-0.01,-0.04,-3.78,0.37,-0.37
98697.1255639,2213.0,1.0,-0.01,-0.04,-3.6,0.24,-0.37
98697.1348293,2214.0,1.0,-0.01,-0.04,-3.78,0.43,-0.37
98697.1350395,2215.0,1.0,-0.0,-0.04,-3.78,0.3,-0.24
98697.1374342,2216.0,1.0,-0.0,-0.04,-3.72,0.37,-0.18
98697.1462635,2217.0,1.01,-0.01,-0.04,-3.66,0.06,-0.43
98697.1464703,2218.0,1.01,-0.01,-0.03,-3.6,0.61,-0.43
98697.1538943,2219.0,1.0,-0.01,-0.04,-3.78,0.24,-0.24
98697.1557216,2220.0,1.0,-0.01,-0.04,-3.84,0.24,-0.18
98697.1645407,2221.0,1.01,-0.01,-0.04,-4.02,0.18,-0.24
98697.1647631,2222.0,1.0,-0.0,-0.05,-3.66,0.49,-0.24
98697.1654846,2223.0,1.0,-0.0,-0.04,-3.84,0.0,-0.12
98697.1720283,2224.0,1.0,-0.01,-0.04,-3.72,0.12,-0.12
98697.1827146,2225.0,1.01,-0.01,-0.04,-3.72,0.24,-0.37
98697.1829234,2226.0,1.01,-0.01,-0.04,-3.72,0.37,-0.43
98697.1831272,2227.0,1.01,-0.0,-0.03,-3.96,0.12,-0.3
98697.1942218,2228.0,1.01,-0.01,-0.03,-3.54,0.24,-0.24
98697.194434,2229.0,1.0,-0.01,-0.04,-3.78,0.3,-0.49
98697.2009027,2230.0,1.0,-0.0,-0.04,-3.66,0.24,-0.37
98697.2032755,2231.0,1.01,-0.01,-0.03,-3.72,0.3,-0.18
98697.2120826,2232.0,1.0,-0.0,-0.04,-3.66,0.43,-0.37
98697.2122922,2233.0,1.01,-0.01,-0.04,-3.72,0.73,-0.24
98697.2189412,2234.0,1.01,-0.0,-0.04,-3.84,0.24,-0.3
98697.2207096,2235.0,1.0,-0.01,-0.04,-3.84,0.55,-0.24
98697.2295242,2236.0,1.01,-0.0,-0.04,-3.9,0.24,-0.37
98697.2297377,2237.0,1.01,-0.01,-0.04,-3.66,0.18,-0.12
98697.2319899,2238.0,1.01,-0.0,-0.04,-3.41,0.43,-0.12
98697.2403907,2239.0,1.01,-0.01,-0.04,-3.9,0.12,-0.18
98697.2409829,2240.0,1.0,-0.01,-0.03,-3.78,0.06,-0.43
98697.2475894,2241.0,1.01,-0.01,-0.04,-3.48,0.06,-0.49
98697.2492804,2242.0,1.01,-0.0,-0.04,-3.84,0.43,-0.3
98697.2580102,2243.0,1.01,-0.0,-0.04,-3.84,0.3,-0.37
98697.258351,2244.0,1.0,-0.01,-0.04,-3.54,0.37,-0.67
98697.2650664,2245.0,1.01,-0.01,-0.04,-3.72,0.49,-0.18
98697.2668001,2246.0,1.01,-0.01,-0.04,-3.66,0.37,-0.06
98697.2754981,2247.0,1.0,-0.01,-0.04,-3.72,0.73,-0.18
98697.2757274,2248.0,1.01,-0.01,-0.04,-3.66,0.49,-0.37
98697.2826639,2249.0,1.01,-0.0,-0.04,-3.78,0.3,-0.18
98697.2843965,2250.0,1.0,-0.0,-0.04,-3.6,0.18,-0.24
98697.2937901,2251.0,1.01,-0.01,-0.04,-3.6,0.24,-0.49
98697.2939982,2252.0,0.99,-0.01,-0.05,-3.54,0.24,-0.61
98697.3053828,2253.0,1.01,-0.0,-0.04,-3.6,-0.12,-0.61
98697.3055987,2254.0,1.0,-0.0,-0.03,-3.84,0.0,-0.3
98697.3058063,2255.0,1.02,-0.0,-0.03,-3.66,0.06,-0.12
98697.3133784,2256.0,1.01,-0.01,-0.04,-3.6,0.37,-0.18
98697.3151112,2257.0,1.01,-0.01,-0.04,-3.84,0.0,-0.06
98697.3244245,2258.0,1.0,-0.01,-0.04,-3.72,0.18,-0.18
98697.324648,2259.0,1.0,-0.0,-0.04,-3.66,0.12,-0.43
98697.3317703,2260.0,1.01,-0.01,-0.04,-3.66,0.0,-0.37
98697.3334668,2261.0,1.01,-0.0,-0.03,-3.72,0.06,-0.3
98697.3427096,2262.0,1.01,-0.0,-0.03,-3.78,0.55,-0.24
98697.3429314,2263.0,1.01,-0.01,-0.04,-3.96,0.24,-0.06
98697.3450849,2264.0,1.01,-0.0,-0.04,-3.6,0.24,-0.24
98697.3537669,2265.0,1.01,-0.0,-0.04,-3.96,0.55,-0.37
98697.3539733,2266.0,1.0,-0.01,-0.04,-3.66,0.3,-0.43
98697.3612357,2267.0,1.0,-0.01,-0.04,-3.66,0.49,-0.43
98697.3631388,2268.0,1.01,-0.0,-0.04,-3.72,0.61,-0.24
98697.3747928,2269.0,1.01,-0.0,-0.04,-4.02,0.3,-0.12
98697.3750334,2270.0,1.01,-0.0,-0.04,-3.72,0.18,-0.24
98697.3752412,2271.0,1.0,-0.0,-0.05,-3.78,0.3,-0.12
98697.383121,2272.0,1.0,-0.01,-0.04,-3.78,-0.06,-0.43
98697.3843372,2273.0,1.01,-0.0,-0.03,-3.54,0.3,-0.43
98697.3952006,2274.0,1.0,-0.0,-0.04,-3.78,0.06,-0.37
98697.3954109,2275.0,1.01,0.0,-0.04,-3.78,0.55,-0.06
98697.3967249,2276.0,1.0,-0.01,-0.04,-3.9,0.06,-0.24
98697.4027211,2277.0,0.99,-0.0,-0.05,-3.72,0.24,-0.43
98697.4045476,2278.0,1.0,-0.01,-0.04,-3.48,0.18,-0.55
98697.4143431,2279.0,1.01,-0.01,-0.04,-3.78,0.06,-0.3
98697.414566,2280.0,1.01,-0.01,-0.04,-3.96,0.18,-0.06
98697.421789,2281.0,1.01,-0.0,-0.04,-3.72,0.12,-0.18
98697.423548,2282.0,1.01,0.0,-0.04,-3.78,0.0,-0.37
98697.434945,2283.0,1.01,-0.0,-0.04,-3.84,0.06,-0.24
98697.4351538,2284.0,1.0,-0.01,-0.04,-3.72,-0.12,-0.24
98697.4353712,2285.0,1.01,-0.01,-0.04,-3.78,0.06,-0.37
98697.4434905,2286.0,1.01,-0.01,-0.04,-3.78,0.18,-0.3
98697.4455599,2287.0,1.0,-0.0,-0.04,-3.54,0.18,-0.49
98697.4496236,2288.0,1.01,-0.0,-0.04,-3.66,0.3,-0.24
98697.4562811,2289.0,1.0,-0.0,-0.04,-3.84,0.18,-0.37
98697.4564896,2290.0,1.0,-0.01,-0.04,-3.48,0.37,-0.3
98697.4698583,2291.0,1.01,-0.0,-0.04,-3.6,0.18,-0.3
98697.4700973,2292.0,1.0,-0.0,-0.04,-3.6,0.24,-0.24
98697.4703018,2293.0,1.0,-0.01,-0.04,-3.78,0.37,-0.24
98697.4772368,2294.0,1.01,-0.0,-0.04,-3.72,0.24,-0.12
98697.4790371,2295.0,1.01,-0.01,-0.04,-3.54,0.24,-0.12
98697.4884437,2296.0,1.0,-0.0,-0.04,-3.72,0.24,-0.3
98697.4886512,2297.0,1.01,-0.01,-0.04,-3.54,0.24,-0.43
98697.4965508,2298.0,1.01,-0.01,-0.05,-3.54,0.43,-0.37
98697.4967756,2299.0,1.0,-0.0,-0.04,-3.9,0.24,-0.18
98697.5077078,2300.0,1.01,-0.01,-0.04,-3.66,0.12,-0.12
98697.507935,2301.0,1.0,-0.0,-0.04,-3.41,0.0,-0.18
98697.5081426,2302.0,1.0,-0.0,-0.04,-3.66,0.18,0.0
98697.5164699,2303.0,1.0,-0.01,-0.04,-3.78,0.0,-0.37
98697.5182922,2304.0,1.01,-0.01,-0.03,-3.54,0.18,-0.24
98697.5282983,2305.0,1.0,-0.01,-0.04,-3.78,0.0,-0.49
98697.5285251,2306.0,1.01,-0.0,-0.04,-3.84,0.12,-0.24
98697.5288181,2307.0,1.01,-0.01,-0.04,-4.02,0.55,-0.73
98697.5374465,2308.0,1.0,-0.0,-0.04,-3.6,0.37,-0.06
98697.5478675,2309.0,1.01,-0.0,-0.04,-3.6,0.43,-0.3
98697.5480776,2310.0,1.0,-0.0,-0.04,-3.72,0.0,-0.24
98697.5482861,2311.0,1.0,-0.0,-0.04,-3.48,0.24,-0.12
98697.5550427,2312.0,1.0,-0.0,-0.04,-3.6,0.18,-0.24
98697.5570054,2313.0,1.01,-0.01,-0.04,-3.72,0.24,-0.24
98697.5678656,2314.0,1.01,-0.01,-0.04,-3.84,0.37,-0.18
98697.5680884,2315.0,1.0,-0.01,-0.04,-3.66,0.3,-0.18
98697.569718,2316.0,1.0,-0.0,-0.04,-3.72,0.18,-0.3
98697.579566,2317.0,1.0,-0.01,-0.04,-3.78,0.3,-0.24
98697.5797746,2318.0,1.0,-0.0,-0.04,-3.54,0.37,-0.06
98697.5806525,2319.0,1.01,-0.01,-0.04,-3.84,0.06,-0.06
98697.5874695,2320.0,1.0,-0.0,-0.04,-3.78,0.0,-0.37
98697.5905567,2321.0,1.02,-0.0,-0.03,-3.72,0.06,-0.37
98697.5999237,2322.0,1.01,0.0,-0.04,-3.72,0.12,-0.37
98697.6001362,2323.0,1.01,-0.01,-0.04,-3.66,0.24,-0.3
98697.6121157,2324.0,1.0,-0.01,-0.05,-3.78,0.24,-0.24
98697.6123273,2325.0,1.01,-0.01,-0.04,-3.72,0.49,-0.3
98697.6125408,2326.0,1.0,-0.01,-0.04,-3.66,0.06,-0.43
98697.6200185,2327.0,1.0,-0.0,-0.04,-3.54,0.37,-0.18
98697.6218374,2328.0,1.01,-0.0,-0.03,-3.72,0.3,-0.06
98697.632721,2329.0,1.01,-0.01,-0.04,-3.72,0.12,-0.49
98697.6329346,2330.0,1.01,-0.0,-0.03,-3.9,0.12,-0.12
98697.633165,2331.0,1.0,-0.01,-0.03,-3.6,0.43,-0.18
98697.6415775,2332.0,1.0,-0.01,-0.03,-3.54,0.61,-0.43
98697.6441927,2333.0,1.01,-0.0,-0.03,-3.6,-0.06,-0.37
98697.6552433,2334.0,1.01,-0.0,-0.04,-3.96,0.37,-0.24
98697.6554695,2335.0,1.01,-0.01,-0.05,-3.9,0.24,-0.06
98697.656125,2336.0,1.01,-0.01,-0.03,-3.6,0.49,-0.49
98697.6628501,2337.0,1.0,-0.01,-0.04,-3.66,0.55,-0.37
98697.6650912,2338.0,1.0,-0.01,-0.04,-3.6,0.73,-0.24
98697.6752841,2339.0,1.01,-0.0,-0.03,-3.9,0.43,-0.12
98697.6754925,2340.0,1.0,-0.0,-0.04,-3.66,0.43,-0.37
