tempo_arduino_us,tempo_relogio_pc,contador,ax,ay,az,gx,gy,gz
10007516.0,366141.6778741,2.0,1.0,-0.0,-0.04,-3.72,0.37,-0.06
10012072.0,366141.680039,3.0,1.0,-0.01,-0.04,-3.6,0.43,0.06
10016612.0,366141.6855911,4.0,1.0,-0.01,-0.05,-3.72,0.12,-0.43
10021180.0,366141.6944901,5.0,1.0,-0.01,-0.04,-3.84,0.3,-0.06
10025720.0,366141.7417608,6.0,1.0,-0.01,-0.04,-3.29,0.3,0.06
10030264.0,366141.7841313,7.0,1.0,-0.01,-0.05,-3.48,0.37,-0.3
10034828.0,366141.8334143,8.0,1.0,0.0,-0.04,-3.35,0.24,-0.37
10039384.0,366141.8378644,9.0,1.01,-0.01,-0.04,-3.72,0.06,-0.3
10043976.0,366141.8876562,10.0,1.01,-0.0,-0.04,-3.66,0.24,-0.43
10048592.0,366141.9390625,11.0,1.0,-0.01,-0.05,-3.66,0.12,-0.37
10053204.0,366141.9815448,12.0,1.0,-0.01,-0.04,-3.6,0.37,-0.3
10057812.0,366142.0687599,13.0,1.0,-0.0,-0.04,-3.41,0.37,-0.55
10062428.0,366142.0706978,14.0,1.0,-0.01,-0.05,-3.66,0.12,-0.49
10067048.0,366142.1620001,15.0,1.0,-0.01,-0.04,-3.41,0.24,-0.43
10071664.0,366142.1800043,16.0,1.01,-0.0,-0.04,-3.72,0.06,-0.06
10076272.0,366142.2617636,17.0,1.0,-0.01,-0.04,-3.54,0.24,-0.12
10080888.0,366142.263659,18.0,1.0,-0.01,-0.04,-3.6,0.12,-0.37
10085508.0,366142.3664859,19.0,1.01,-0.0,-0.04,-3.29,0.12,-0.55
10090116.0,366142.3711702,20.0,1.0,-0.0,-0.04,-3.6,0.12,-0.24
10094724.0,366142.4273567,21.0,1.0,-0.01,-0.04,-3.35,0.12,-0.49
10099340.0,366142.4818554,22.0,1.0,-0.01,-0.04,-3.66,0.12,-0.37
10103960.0,366142.5249083,23.0,1.0,-0.0,-0.04,-3.72,0.18,-0.24
10108564.0,366142.5662975,24.0,1.0,-0.0,-0.04,-3.66,0.24,-0.43
10113184.0,366142.6252512,25.0,1.0,-0.0,-0.04,-3.48,0.18,-0.37
10117792.0,366142.6985646,26.0,1.0,-0.0,-0.04,-3.54,0.12,-0.3
10122404.0,366142.7395073,27.0,1.01,-0.0,-0.04,-3.54,0.18,-0.49
10127016.0,366142.7882816,28.0,1.0,-0.0,-0.05,-3.54,0.37,-0.18
10131628.0,366142.8303383,29.0,1.0,-0.0,-0.04,-3.72,0.3,-0.3
10136224.0,366142.8794669,30.0,1.0,-0.0,-0.04,-3.41,0.43,-0.3
10140844.0,366142.8815704,31.0,1.0,-0.01,-0.04,-3.54,0.24,-0.49
10145460.0,366142.9728664,32.0,1.0,-0.01,-0.04,-3.48,0.18,-0.3
10150072.0,366142.9903584,33.0,1.0,-0.0,-0.04,-3.6,0.24,-0.18
10154668.0,366143.0680284,34.0,1.0,-0.0,-0.04,-3.41,0.43,-0.06
10159280.0,366143.1139335,35.0,1.0,-0.01,-0.04,-3.41,0.12,-0.3
10163892.0,366143.1658292,36.0,1.0,-0.0,-0.04,-3.48,0.43,-0.24
10168512.0,366143.2116799,37.0,1.0,-0.0,-0.04,-3.29,0.12,-0.12
10173116.0,366143.2564526,38.0,1.0,-0.0,-0.04,-3.48,0.12,-0.24
10177736.0,366143.2963356,39.0,1.0,-0.0,-0.04,-3.66,0.06,-0.43
10182328.0,366143.3412344,40.0,1.0,-0.01,-0.04,-3.41,0.12,-0.67
10186948.0,366143.3834194,41.0,1.0,-0.01,-0.03,-3.72,0.06,-0.43
10191552.0,366143.4260445,42.0,1.01,-0.01,-0.04,-3.54,0.24,-0.49
10196176.0,366143.4670609,43.0,1.0,-0.0,-0.04,-3.48,0.37,-0.24
10200792.0,366143.5128991,44.0,1.0,-0.01,-0.03,-3.41,-0.24,-0.18
10205412.0,366143.5527368,45.0,1.0,-0.0,-0.04,-3.29,0.06,-0.43
10210004.0,366143.6005614,46.0,1.0,-0.01,-0.04,-3.48,0.55,-0.49
10214624.0,366143.6415817,47.0,1.0,-0.01,-0.05,-3.6,0.18,-0.24
10219240.0,366143.6888069,48.0,1.0,-0.0,-0.04,-3.41,0.12,-0.3
10223852.0,366143.7315993,49.0,1.0,-0.0,-0.04,-3.48,0.3,-0.43
10228448.0,366143.7776434,50.0,1.0,-0.01,-0.04,-3.6,0.06,-0.49
10233056.0,366143.8188272,51.0,1.0,-0.01,-0.04,-3.48,0.24,-0.55
10237664.0,366143.8673929,52.0,1.0,-0.0,-0.04,-3.9,0.55,-0.37
10242276.0,366143.9115583,53.0,1.0,-0.0,-0.04,-3.6,0.12,-0.24
10246868.0,366143.9586272,54.0,1.0,-0.0,-0.04,-3.6,0.18,-0.06
10251468.0,366144.0033979,55.0,1.0,-0.01,-0.04,-3.41,0.12,-0.55
10256092.0,366144.054594,56.0,1.0,-0.0,-0.04,-3.72,0.3,-0.43
10260696.0,366144.1002131,57.0,1.0,-0.0,-0.04,-3.72,0.12,-0.37
10265300.0,366144.1488333,58.0,1.0,-0.0,-0.04,-3.54,0.0,-0.18
10269868.0,366144.1962308,59.0,1.0,-0.0,-0.04,-3.66,-0.12,-0.67
10274472.0,366144.2448153,60.0,1.0,-0.01,-0.04,-3.41,-0.06,-0.37
10279104.0,366144.2921246,61.0,1.0,-0.01,-0.04,-3.54,0.24,-0.37
10283708.0,366144.3408098,62.0,1.0,-0.0,-0.04,-3.72,0.06,-0.49
10288316.0,366144.4087278,63.0,1.0,-0.01,-0.04,-3.29,0.18,-0.3
10292920.0,366144.4370012,64.0,1.0,-0.01,-0.04,-3.72,0.37,-0.12
10297540.0,366144.5333343,65.0,1.0,-0.0,-0.03,-3.72,0.37,-0.37
10302156.0,366144.5352212,66.0,1.0,-0.01,-0.04,-3.66,0.06,-0.3
10306756.0,366144.6323229,67.0,1.0,-0.01,-0.04,-3.66,0.12,-0.24
10311368.0,366144.6782558,68.0,1.0,-0.01,-0.04,-3.66,0.37,-0.24
10315980.0,366144.732014,69.0,1.0,-0.0,-0.04,-3.29,0.12,-0.12
10320588.0,366144.7869626,70.0,1.01,-0.01,-0.04,-3.6,0.06,-0.12
10325204.0,366144.7887215,71.0,1.0,-0.0,-0.04,-3.48,0.0,-0.55
10329764.0,366144.8895798,72.0,1.0,-0.0,-0.04,-3.54,0.24,-0.18
10334372.0,366144.8912774,73.0,1.0,-0.01,-0.04,-3.66,0.12,-0.18
10338984.0,366144.9839626,74.0,1.0,-0.01,-0.03,-3.66,0.12,-0.24
10343604.0,366144.9956669,75.0,1.0,-0.01,-0.04,-3.48,0.37,-0.37
10348228.0,366145.0678811,76.0,1.0,-0.0,-0.04,-3.72,0.06,-0.24
10352832.0,366145.1070604,77.0,1.0,-0.01,-0.04,-3.41,0.0,-0.43
10357392.0,366145.1531889,78.0,1.0,-0.01,-0.04,-3.54,0.3,-0.43
10362024.0,366145.1930886,79.0,1.0,-0.01,-0.05,-3.54,0.12,-0.43
10366640.0,366145.2411831,80.0,1.0,-0.01,-0.04,-3.6,0.3,-0.37
10371248.0,366145.2828386,81.0,1.0,-0.0,-0.04,-3.6,0.24,-0.3
10375844.0,366145.3261148,82.0,1.0,-0.0,-0.04,-3.72,0.12,-0.24
10380452.0,366145.3684432,83.0,1.01,-0.01,-0.04,-3.54,0.49,-0.43
10385068.0,366145.4137993,84.0,1.01,-0.01,-0.04,-3.6,0.18,-0.24
10389700.0,366145.4635287,85.0,1.01,-0.0,-0.04,-3.6,0.24,-0.43
10394300.0,366145.5504541,86.0,1.0,-0.01,-0.04,-3.48,0.0,-0.43
10398872.0,366145.5523646,87.0,1.0,-0.01,-0.04,-3.6,0.0,-0.37
10403432.0,366145.6386062,88.0,1.0,-0.0,-0.05,-3.41,0.37,-0.12
10408048.0,366145.6424577,89.0,1.0,-0.01,-0.04,-3.54,0.37,-0.24
10412660.0,366145.6876645,90.0,1.0,-0.01,-0.04,-3.9,0.3,-0.37
10417272.0,366145.7353346,91.0,1.0,-0.0,-0.04,-3.66,0.24,-0.18
10421876.0,366145.7836647,92.0,1.0,-0.01,-0.04,-3.66,0.24,-0.37
10426488.0,366145.7874674,93.0,1.0,-0.01,-0.04,-3.72,0.06,-0.3
10431092.0,366145.8351805,94.0,1.0,-0.01,-0.04,-3.6,0.37,-0.37
10435724.0,366145.8819726,95.0,1.0,-0.0,-0.04,-3.54,0.24,-0.18
10440328.0,366145.9711387,96.0,1.0,-0.01,-0.05,-3.41,0.67,-0.37
10444956.0,366145.9730739,97.0,1.0,-0.01,-0.04,-3.35,0.18,-0.37
10449560.0,366146.0610339,98.0,1.01,-0.01,-0.05,-3.48,0.49,-0.18
10454180.0,366146.1033335,99.0,1.0,-0.01,-0.04,-3.29,0.06,-0.37
10458832.0,366146.1528925,100.0,1.0,-0.0,-0.04,-3.96,0.06,-0.24
10463484.0,366146.201838,101.0,1.0,-0.0,-0.04,-3.54,0.37,-0.3
10468140.0,366146.2449848,102.0,1.0,-0.0,-0.04,-3.48,0.49,-0.24
10472804.0,366146.2981072,103.0,1.0,-0.0,-0.04,-3.66,0.18,-0.12
10477456.0,366146.3416633,104.0,1.0,-0.0,-0.05,-3.48,0.3,-0.37
10482120.0,366146.392255,105.0,1.0,-0.01,-0.04,-3.48,0.12,-0.37
10486792.0,366146.4427097,106.0,1.0,-0.0,-0.04,-3.48,0.06,-0.24
10491436.0,366146.4446896,107.0,1.0,-0.0,-0.04,-3.54,0.24,-0.12
10496096.0,366146.4916116,108.0,1.0,-0.0,-0.04,-3.6,0.43,-0.67
10500748.0,366146.5418134,109.0,1.0,-0.01,-0.04,-3.78,0.12,-0.24
10505408.0,366146.5904679,110.0,1.0,-0.0,-0.04,-3.48,0.0,-0.55
10510008.0,366146.6361547,111.0,1.0,-0.0,-0.04,-3.54,0.37,-0.3
10514664.0,366146.6861921,112.0,1.0,-0.0,-0.04,-3.54,0.55,-0.24
10519320.0,366146.7328273,113.0,1.0,-0.01,-0.04,-3.48,0.24,-0.24
10523984.0,366146.7822037,114.0,1.0,-0.01,-0.04,-3.54,0.3,-0.24
10528640.0,366146.831173,115.0,1.0,-0.0,-0.04,-3.6,0.3,-0.43
10533296.0,366146.8800263,116.0,1.0,-0.01,-0.04,-3.35,0.12,-0.3
10537972.0,366146.9478591,117.0,1.0,-0.0,-0.04,-3.66,0.18,-0.24
10542632.0,366146.9775422,118.0,1.0,-0.0,-0.04,-3.84,-0.06,-0.43
10547292.0,366147.0288869,119.0,1.0,-0.01,-0.04,-3.78,0.49,-0.43
10551956.0,366147.0759186,120.0,1.0,-0.0,-0.04,-3.66,0.49,-0.37
10556628.0,366147.1738097,121.0,1.0,-0.01,-0.04,-3.29,0.06,-0.12
10561284.0,366147.2200292,122.0,1.0,-0.0,-0.04,-3.78,-0.12,-0.24
10565948.0,366147.272824,123.0,1.0,-0.0,-0.04,-3.66,0.24,-0.18
10570612.0,366147.3210764,124.0,1.0,-0.01,-0.04,-3.54,-0.06,-0.3
10575272.0,366147.3735921,125.0,1.0,-0.0,-0.04,-3.72,0.43,0.06
10579916.0,366147.4272291,126.0,1.0,-0.0,-0.04,-3.66,0.12,-0.3
10584576.0,366147.4736907,127.0,1.0,0.0,-0.04,-3.66,0.18,-0.24
10589224.0,366147.5277374,128.0,1.0,-0.0,-0.04,-3.54,0.12,-0.37
10593880.0,366147.5744061,129.0,1.0,-0.0,-0.04,-3.48,0.18,-0.55
10598540.0,366147.629402,130.0,1.0,-0.01,-0.04,-3.48,-0.12,-0.49
10603208.0,366147.6837412,131.0,1.0,-0.0,-0.04,-3.54,-0.06,-0.24
10607868.0,366147.7300701,132.0,1.01,-0.0,-0.04,-3.54,0.12,-0.18
10612524.0,366147.7848688,133.0,1.0,-0.01,-0.04,-3.41,0.06,-0.3
10617176.0,366147.8320516,134.0,1.0,-0.01,-0.04,-3.29,0.24,-0.24
10621844.0,366147.8871008,135.0,1.0,-0.0,-0.04,-3.54,0.06,-0.55
10626492.0,366147.9426799,136.0,1.01,-0.01,-0.04,-3.54,0.24,-0.12
10631160.0,366147.9448123,137.0,1.0,-0.0,-0.04,-3.72,0.12,-0.37
10635820.0,366148.0449973,138.0,1.0,-0.0,-0.04,-3.78,0.18,-0.12
10640484.0,366148.0986179,139.0,1.0,-0.0,-0.04,-3.78,0.3,-0.24
10645140.0,366148.1004381,140.0,1.01,-0.01,-0.04,-3.54,0.24,-0.06
10649808.0,366148.2016783,141.0,0.99,-0.01,-0.04,-3.72,0.0,-0.3
10654432.0,366148.2221507,142.0,1.0,-0.01,-0.04,-3.54,-0.12,-0.24
10659100.0,366148.3044269,143.0,1.0,-0.0,-0.05,-3.6,0.24,-0.24
10663744.0,366148.3525294,144.0,1.0,-0.01,-0.04,-3.84,0.18,-0.37
10668408.0,366148.4088527,145.0,1.0,-0.01,-0.04,-3.48,0.37,-0.3
10673072.0,366148.4629361,146.0,1.0,-0.01,-0.04,-3.23,0.18,-0.18
10677740.0,366148.5159463,147.0,1.0,-0.01,-0.04,-3.48,0.3,-0.3
10682416.0,366148.5685946,148.0,1.0,-0.01,-0.04,-3.48,0.12,-0.24
10687072.0,366148.6246524,149.0,1.0,-0.0,-0.05,-3.29,-0.06,-0.18
10691732.0,366148.6788444,150.0,1.0,-0.01,-0.04,-3.54,0.12,-0.3
10696384.0,366148.7329145,151.0,1.0,-0.0,-0.04,-3.6,0.0,-0.49
10700988.0,366148.7859731,152.0,1.0,-0.01,-0.04,-3.72,0.3,-0.49
10705640.0,366148.8398228,153.0,1.0,-0.01,-0.04,-3.54,0.18,-0.37
10710312.0,366148.8935054,154.0,1.0,-0.01,-0.04,-3.6,0.06,-0.37
10714980.0,366148.9466828,155.0,1.0,-0.0,-0.05,-3.41,0.37,-0.37
10719652.0,366149.0505107,156.0,1.0,-0.0,-0.04,-3.48,0.12,-0.18
17382416.0,366149.1561372,1579.0,1.0,-0.01,-0.04,-3.48,0.49,-0.18
17387132.0,366149.2062951,1580.0,1.0,-0.0,-0.04,-3.54,0.12,0.0
17391808.0,366149.2628835,1581.0,1.0,-0.0,-0.04,-3.66,0.43,-0.3
17396520.0,366149.3201604,1582.0,1.0,-0.01,-0.04,-3.6,0.18,-0.67
17401244.0,366149.3221797,1583.0,1.0,-0.0,-0.04,-3.48,0.18,-0.43
17405972.0,366149.4283049,1584.0,1.0,-0.0,-0.04,-3.41,0.37,-0.24
17410692.0,366149.4797321,1585.0,1.0,-0.0,-0.04,-3.84,0.18,-0.3
17415408.0,366149.5370121,1586.0,1.0,-0.01,-0.04,-3.54,0.37,-0.43
17420136.0,366149.5953857,1587.0,1.0,-0.0,-0.04,-3.48,0.18,-0.18
17424848.0,366149.5974646,1588.0,1.0,-0.0,-0.04,-3.54,0.18,-0.18
17429576.0,366149.7062456,1589.0,1.0,-0.01,-0.05,-3.6,0.18,-0.37
17434300.0,366149.7578608,1590.0,1.0,-0.0,-0.04,-3.41,0.18,-0.49
17439012.0,366149.8163198,1591.0,1.0,-0.01,-0.05,-3.6,0.24,-0.37
17443736.0,366149.8694914,1592.0,1.0,-0.01,-0.05,-3.72,0.0,-0.49
17448416.0,366149.9261317,1593.0,1.01,-0.0,-0.04,-3.41,0.18,-0.3
17453144.0,366149.9810723,1594.0,1.0,-0.01,-0.04,-3.41,0.3,-0.3
17457872.0,366150.0372252,1595.0,1.0,-0.0,-0.04,-3.6,0.37,-0.37
17462584.0,366150.1191591,1596.0,1.0,-0.01,-0.04,-3.48,0.3,-0.06
17467292.0,366150.1508767,1597.0,1.0,-0.0,-0.04,-3.29,0.12,-0.3
17472004.0,366150.2089655,1598.0,1.0,-0.01,-0.04,-3.84,0.06,-0.43
17476720.0,366150.3187473,1599.0,1.0,-0.0,-0.04,-3.72,0.24,-0.55
17481432.0,366150.3718773,1600.0,1.0,-0.01,-0.04,-3.41,0.24,-0.37
17486156.0,366150.418951,1601.0,1.0,-0.01,-0.04,-3.78,0.24,-0.3
17490876.0,366150.4615957,1602.0,1.0,-0.01,-0.04,-3.72,0.0,-0.37
17495556.0,366150.5060214,1603.0,1.0,-0.0,-0.04,-3.29,0.06,-0.24
17500272.0,366150.5478388,1604.0,1.0,-0.01,-0.04,-3.41,0.12,0.06
17504984.0,366150.5941357,1605.0,1.0,-0.01,-0.04,-3.54,0.43,-0.3
17509704.0,366150.6791699,1606.0,1.0,-0.0,-0.04,-3.41,0.24,-0.49
17514416.0,366150.6867922,1607.0,1.0,-0.0,-0.04,-3.54,0.12,-0.18
17519128.0,366150.7301591,1608.0,1.0,-0.0,-0.04,-3.48,0.06,-0.43
17523844.0,366150.7754296,1609.0,1.0,-0.0,-0.04,-3.54,0.12,-0.3
17528540.0,366150.8226681,1610.0,1.01,-0.0,-0.04,-3.48,0.0,-0.24
17533216.0,366150.8421364,1611.0,1.0,-0.0,-0.04,-3.6,0.06,-0.3
17537904.0,366150.8737183,1612.0,1.01,-0.0,-0.04,-3.48,-0.06,-0.49
17542628.0,366150.919292,1613.0,1.0,-0.0,-0.04,-3.54,0.12,-0.55
17547352.0,366150.9669118,1614.0,1.0,-0.0,-0.04,-3.41,0.0,-0.49
17552024.0,366150.9865208,1615.0,1.0,-0.0,-0.04,-3.6,0.0,-0.37
17556700.0,366151.0181238,1616.0,1.0,-0.01,-0.04,-3.66,0.12,-0.24
17561424.0,366151.063396,1617.0,1.0,-0.0,-0.05,-3.54,0.37,-0.12
17566148.0,366151.1109807,1618.0,1.0,-0.0,-0.05,-3.72,0.37,-0.3
17570876.0,366151.158384,1619.0,1.0,-0.01,-0.04,-3.96,0.3,-0.55
17575584.0,366151.162499,1620.0,1.0,-0.0,-0.04,-3.6,0.3,-0.3
17580288.0,366151.2096056,1621.0,1.0,-0.0,-0.04,-3.66,0.0,-0.24
17584956.0,366151.255442,1622.0,1.0,-0.01,-0.04,-3.35,0.18,-0.37
17589692.0,366151.3038738,1623.0,1.0,-0.0,-0.04,-3.54,0.24,-0.24
17594408.0,366151.3086907,1624.0,1.0,-0.0,-0.04,-3.6,0.12,-0.49
17599108.0,366151.3560162,1625.0,1.0,-0.01,-0.04,-3.54,0.37,-0.3
17603840.0,366151.4042974,1626.0,1.0,-0.01,-0.04,-3.6,0.06,-0.67
17608552.0,366151.4468409,1627.0,1.0,-0.0,-0.04,-3.54,0.18,-0.3
17613260.0,366151.4932128,1628.0,1.0,-0.01,-0.04,-3.66,0.37,-0.06
17617992.0,366151.5369219,1629.0,1.0,-0.0,-0.04,-3.6,0.18,-0.3
17622684.0,366151.5831853,1630.0,1.0,-0.01,-0.04,-3.6,0.3,-0.12
17627400.0,366151.6309165,1631.0,1.0,-0.01,-0.04,-3.72,-0.12,-0.37
17632144.0,366151.6774713,1632.0,1.0,-0.0,-0.04,-3.66,0.12,-0.43
17636868.0,366151.7225496,1633.0,1.0,-0.01,-0.04,-3.6,0.06,-0.24
17641584.0,366151.7714354,1634.0,1.0,-0.0,-0.04,-3.72,0.49,-0.06
17646276.0,366151.8150282,1635.0,1.0,-0.0,-0.04,-3.41,0.43,-0.3
17650984.0,366151.8620342,1636.0,1.0,-0.01,-0.04,-3.23,0.3,-0.12
17655708.0,366151.9061578,1637.0,1.0,-0.0,-0.04,-3.9,0.24,-0.55
17660416.0,366151.9529857,1638.0,1.0,-0.0,-0.05,-3.54,0.12,-0.67
17665156.0,366152.042483,1639.0,1.01,-0.01,-0.04,-3.54,0.12,-0.18
17669888.0,366152.0842554,1640.0,1.0,-0.0,-0.04,-3.6,0.06,-0.18
17674588.0,366152.1344989,1641.0,1.0,-0.01,-0.04,-3.48,0.06,-0.3
17679296.0,366152.1762156,1642.0,1.0,-0.01,-0.05,-3.29,-0.06,-0.37
17684020.0,366152.2269111,1643.0,1.0,-0.0,-0.04,-3.6,0.06,-0.43
17688736.0,366152.4091733,1644.0,1.0,-0.0,-0.05,-3.84,0.3,-0.24
17693436.0,366152.4978457,1645.0,1.0,-0.01,-0.04,-3.35,0.3,-0.3
17698144.0,366152.5475114,1646.0,1.0,-0.01,-0.03,-3.6,0.3,-0.3
17702856.0,366152.589624,1647.0,1.0,-0.01,-0.05,-3.54,0.18,-0.24
17707580.0,366152.6383035,1648.0,1.0,-0.0,-0.05,-3.66,-0.12,-0.3
17712308.0,366152.683165,1649.0,1.0,-0.0,-0.04,-3.66,0.12,-0.24
17717020.0,366152.7307867,1650.0,1.0,-0.01,-0.04,-3.66,0.18,-0.3
17721744.0,366152.7762248,1651.0,1.0,-0.0,-0.04,-3.78,0.12,-0.3
17726452.0,366152.8220151,1652.0,1.0,-0.0,-0.05,-3.84,0.37,-0.18
17731176.0,366152.9095833,1653.0,1.0,-0.01,-0.04,-3.54,0.12,-0.24
17735908.0,366152.911616,1654.0,1.0,-0.0,-0.04,-3.66,0.24,-0.37
17740616.0,366153.0002522,1655.0,1.0,-0.0,-0.04,-3.54,0.12,-0.3
17745328.0,366153.0490375,1656.0,1.01,-0.01,-0.04,-3.54,0.12,-0.37
17750080.0,366153.0528604,1657.0,1.0,-0.0,-0.04,-3.48,-0.18,-0.37
17754804.0,366153.0997417,1658.0,1.0,-0.0,-0.05,-3.48,0.12,-0.18
17759528.0,366153.146146,1659.0,1.0,-0.0,-0.04,-3.72,0.24,-0.18
17764240.0,366153.1949598,1660.0,1.0,-0.01,-0.04,-3.66,0.18,-0.12
17768964.0,366153.2423073,1661.0,1.0,-0.01,-0.05,-3.23,-0.06,-0.3
17773692.0,366153.2925263,1662.0,1.0,-0.0,-0.05,-3.54,0.3,-0.24
17778404.0,366153.3354517,1663.0,1.0,-0.01,-0.04,-3.48,0.43,-0.37
17783136.0,366153.384127,1664.0,1.0,-0.01,-0.04,-3.54,0.0,-0.37
17787816.0,366153.4337495,1665.0,1.0,-0.01,-0.04,-3.66,0.18,-0.37
17792548.0,366153.4828853,1666.0,1.0,-0.0,-0.04,-3.54,0.06,-0.18
17797264.0,366153.4849019,1667.0,1.0,-0.0,-0.04,-3.66,0.06,-0.37
17801964.0,366153.575228,1668.0,1.0,-0.0,-0.04,-3.41,0.37,-0.55
17806688.0,366153.6244757,1669.0,1.0,-0.01,-0.04,-3.48,0.24,-0.43
17811420.0,366153.6284287,1670.0,1.0,-0.01,-0.04,-3.66,0.06,-0.37
17816144.0,366153.6770228,1671.0,1.0,-0.01,-0.04,-3.54,-0.12,-0.3
17820884.0,366153.7684159,1672.0,1.0,-0.0,-0.04,-3.72,0.37,-0.37
17825596.0,366153.7723204,1673.0,1.0,-0.0,-0.04,-3.6,0.24,-0.49
17830304.0,366153.8203948,1674.0,1.0,-0.01,-0.04,-3.72,0.0,-0.43
17834980.0,366153.9115656,1675.0,1.0,-0.01,-0.04,-3.54,0.12,-0.3
17839704.0,366153.9160687,1676.0,1.0,-0.01,-0.04,-3.48,0.37,-0.18
17844436.0,366153.9639951,1677.0,1.0,-0.01,-0.04,-3.54,0.06,-0.3
17849144.0,366154.0141516,1678.0,1.0,-0.0,-0.04,-3.66,0.12,-0.12
17853868.0,366154.0606371,1679.0,1.0,-0.01,-0.05,-3.41,0.0,-0.37
17858548.0,366154.1085901,1680.0,1.0,-0.01,-0.04,-3.72,0.06,-0.12
17863272.0,366154.1548489,1681.0,1.0,-0.01,-0.04,-3.54,0.12,-0.3
17868000.0,366154.2038843,1682.0,1.0,-0.0,-0.04,-3.41,0.12,-0.06
17872712.0,366154.2538139,1683.0,1.0,-0.01,-0.04,-3.54,0.12,-0.3
17877436.0,366154.3017277,1684.0,1.0,-0.01,-0.04,-3.84,0.3,-0.24
17882164.0,366154.3488592,1685.0,1.0,-0.01,-0.04,-3.48,-0.18,-0.18
17886888.0,366154.4414183,1686.0,1.0,-0.01,-0.04,-3.35,0.24,-0.61
17891620.0,366154.4451878,1687.0,1.0,-0.01,-0.04,-3.41,0.24,-0.24
17896344.0,366154.4936903,1688.0,1.01,-0.0,-0.04,-3.35,0.18,-0.43
17901080.0,366154.5457492,1689.0,1.0,-0.01,-0.04,-3.66,0.18,-0.18
17905808.0,366154.5900137,1690.0,1.0,-0.0,-0.04,-3.72,-0.06,-0.3
17910512.0,366154.6830023,1691.0,1.0,-0.01,-0.04,-3.78,0.12,-0.3
17915236.0,366154.7269213,1692.0,1.0,-0.01,-0.04,-3.41,0.43,-0.24
17919968.0,366154.7774791,1693.0,1.0,-0.0,-0.05,-3.78,0.61,-0.3
17924692.0,366154.8278501,1694.0,1.0,-0.01,-0.04,-3.6,0.3,-0.24
17929408.0,366154.8726846,1695.0,1.0,-0.01,-0.04,-3.72,0.12,-0.49
17934128.0,366154.9243881,1696.0,1.0,-0.01,-0.04,-3.35,0.24,-0.43
17938852.0,366154.9752309,1697.0,1.0,-0.0,-0.05,-3.41,0.18,-0.43
17943580.0,366155.0220967,1698.0,1.0,-0.0,-0.04,-3.6,0.0,-0.24
17948232.0,366155.0706943,1699.0,1.0,-0.01,-0.04,-3.6,0.24,-0.43
17952948.0,366155.1181775,1700.0,1.0,-0.0,-0.04,-3.6,0.24,-0.43
17957648.0,366155.1665106,1701.0,1.0,-0.01,-0.04,-3.78,0.61,-0.37
17962384.0,366155.260381,1702.0,1.0,-0.0,-0.04,-3.6,0.12,-0.18
17967096.0,366155.2624419,1703.0,1.0,-0.01,-0.04,-3.72,0.18,-0.3
17971820.0,366155.3561614,1704.0,1.0,-0.0,-0.04,-3.41,0.06,-0.49
17976548.0,366155.4013205,1705.0,1.0,-0.01,-0.04,-3.41,0.37,0.0
17981212.0,366155.4527578,1706.0,1.0,0.0,-0.04,-3.6,0.12,-0.67
17985904.0,366155.5000683,1707.0,1.0,-0.0,-0.04,-3.6,0.37,-0.37
17990616.0,366155.5495924,1708.0,1.0,-0.0,-0.04,-3.66,0.06,-0.43
17995328.0,366155.5978212,1709.0,1.0,-0.01,-0.04,-3.72,0.12,-0.12
18000068.0,366155.6467488,1710.0,1.0,-0.0,-0.04,-3.6,-0.12,-0.49
18004780.0,366155.7420492,1711.0,1.01,-0.01,-0.04,-3.54,0.12,-0.43
18009524.0,366155.7866356,1712.0,1.0,-0.01,-0.04,-3.72,0.3,-0.3
18014240.0,366155.8386991,1713.0,1.0,-0.01,-0.04,-3.6,0.18,-0.43
18018960.0,366155.8845982,1714.0,1.0,-0.0,-0.04,-3.35,0.12,-0.18
18023688.0,366155.936383,1715.0,1.0,-0.0,-0.04,-3.66,0.37,-0.37
18028412.0,366155.9835726,1716.0,1.01,-0.0,-0.04,-3.48,0.61,-0.43
18033140.0,366156.0335323,1717.0,1.0,-0.01,-0.04,-3.41,-0.06,-0.06
18037868.0,366156.082704,1718.0,1.0,-0.0,-0.04,-3.35,0.24,-0.49
18042580.0,366156.1317197,1719.0,1.0,-0.01,-0.04,-3.17,0.12,-0.24
18047304.0,366156.2269456,1720.0,1.0,-0.0,-0.04,-3.17,0.06,-0.18
18052016.0,366156.2453825,1721.0,1.0,-0.0,-0.04,-3.66,0.12,-0.3
18056724.0,366156.3244656,1722.0,1.0,-0.0,-0.04,-3.54,0.43,-0.3
18061440.0,366156.3724057,1723.0,1.0,-0.0,-0.04,-3.41,0.12,-0.37
24694448.0,366156.5215468,3129.0,1.0,-0.0,-0.04,-3.54,0.06,-0.24
24699164.0,366156.5677204,3130.0,1.0,-0.01,-0.03,-3.23,0.12,-0.49
24703888.0,366156.6210713,3131.0,1.0,-0.01,-0.04,-3.48,0.37,-0.24
24708624.0,366156.626439,3132.0,1.0,-0.0,-0.04,-3.54,0.06,-0.06
24713328.0,366156.6764433,3133.0,1.0,-0.0,-0.04,-3.54,0.12,-0.3
24718028.0,366156.7730213,3134.0,1.0,-0.0,-0.04,-3.78,0.0,-0.37
24722700.0,366156.8186157,3135.0,1.0,-0.0,-0.04,-3.54,0.24,-0.61
24727412.0,366156.8735883,3136.0,1.0,-0.01,-0.04,-3.66,-0.18,-0.37
24732148.0,366156.9236652,3137.0,1.0,-0.01,-0.04,-3.54,0.3,-0.43
24736892.0,366156.9753751,3138.0,1.0,-0.0,-0.04,-3.41,0.12,-0.3
24741592.0,366157.0257548,3139.0,1.0,-0.0,-0.03,-3.6,-0.12,-0.61
24746316.0,366157.1233247,3140.0,1.0,-0.01,-0.04,-3.54,0.61,-0.3
24751044.0,366157.1424112,3141.0,1.0,-0.0,-0.04,-3.66,0.55,-0.43
24755772.0,366157.2220051,3142.0,1.0,-0.01,-0.04,-3.48,0.06,-0.12
24760504.0,366157.2691803,3143.0,1.0,-0.01,-0.04,-3.72,0.12,-0.55
24765240.0,366157.3223549,3144.0,1.0,-0.0,-0.04,-3.66,0.06,-0.3
24769952.0,366157.3764432,3145.0,1.0,-0.01,-0.04,-3.66,0.12,-0.06
24774684.0,366157.3784181,3146.0,1.0,-0.0,-0.05,-3.54,0.06,-0.37
24779400.0,366157.4763738,3147.0,0.99,-0.0,-0.05,-3.35,0.49,-0.37
24784132.0,366157.4784106,3148.0,1.0,-0.0,-0.04,-3.78,0.3,-0.24
24788832.0,366157.5766994,3149.0,1.0,-0.0,-0.05,-3.54,0.0,-0.49
24793504.0,366157.6237621,3150.0,1.0,-0.01,-0.04,-3.54,0.06,-0.49
24798232.0,366157.6782264,3151.0,1.0,-0.0,-0.04,-3.72,0.0,-0.43
24802908.0,366157.7323517,3152.0,1.0,-0.0,-0.05,-3.54,0.24,-0.12
24807636.0,366157.7523323,3153.0,1.0,-0.0,-0.04,-3.66,-0.06,-0.49
24812348.0,366157.8329916,3154.0,1.0,-0.0,-0.04,-3.6,0.0,-0.43
24817020.0,366157.8810702,3155.0,1.0,-0.01,-0.04,-3.17,0.18,-0.3
24821748.0,366157.93604,3156.0,1.0,-0.01,-0.04,-3.54,0.43,-0.3
24826472.0,366157.9851835,3157.0,1.0,-0.01,-0.04,-3.48,0.37,-0.06
24831204.0,366158.0371335,3158.0,1.0,-0.0,-0.05,-3.78,0.49,-0.37
24835912.0,366158.0873883,3159.0,1.0,-0.0,-0.04,-3.35,0.3,-0.3
24840624.0,366158.1395405,3160.0,1.0,-0.01,-0.04,-3.41,-0.06,-0.3
24845356.0,366158.190123,3161.0,1.0,-0.0,-0.04,-3.48,0.24,-0.3
24850056.0,366158.2418619,3162.0,1.0,-0.0,-0.04,-3.78,0.12,-0.3
24854772.0,366158.3419242,3163.0,1.0,-0.01,-0.05,-3.66,0.37,-0.43
24859500.0,366158.34397,3164.0,1.0,-0.01,-0.04,-3.6,0.18,-0.06
24864212.0,366158.4436535,3165.0,1.0,-0.0,-0.04,-3.6,-0.06,-0.3
24868924.0,366158.4707014,3166.0,1.0,-0.01,-0.05,-3.48,0.3,-0.3
24873648.0,366158.4997198,3167.0,1.01,-0.0,-0.04,-3.66,-0.06,0.06
24878364.0,366158.5991875,3168.0,1.0,-0.0,-0.04,-3.66,0.06,-0.24
24883080.0,366158.6012156,3169.0,1.0,-0.0,-0.04,-3.48,0.18,-0.12
24887804.0,366158.7010738,3170.0,1.0,-0.01,-0.04,-3.72,0.43,-0.37
24892548.0,366158.7556645,3171.0,1.0,-0.0,-0.04,-3.41,0.3,-0.18
24897260.0,366158.7582623,3172.0,1.0,-0.0,-0.04,-3.48,0.24,-0.12
24901984.0,366158.8594439,3173.0,1.0,-0.0,-0.04,-3.54,0.3,-0.24
24906696.0,366158.9073639,3174.0,1.01,-0.0,-0.04,-3.6,0.06,-0.37
24911408.0,366158.9622877,3175.0,1.0,-0.01,-0.05,-3.48,0.06,-0.3
24916124.0,366159.0122644,3176.0,1.0,-0.01,-0.04,-3.6,0.43,-0.37
24920848.0,366159.0654025,3177.0,1.0,-0.01,-0.05,-3.35,0.3,-0.18
24925584.0,366159.1172456,3178.0,1.0,-0.0,-0.03,-3.72,-0.06,-0.43
24930316.0,366159.1711467,3179.0,0.99,-0.01,-0.03,-3.54,0.18,-0.24
24935044.0,366159.2628712,3180.0,1.0,-0.01,-0.05,-3.54,0.3,-0.49
24939776.0,366159.2648488,3181.0,1.0,-0.0,-0.05,-3.6,0.24,-0.3
24944468.0,366159.3487262,3182.0,1.0,-0.01,-0.04,-3.54,0.18,-0.43
24949204.0,366159.3535486,3183.0,1.0,-0.0,-0.05,-3.78,-0.12,-0.24
24953932.0,366159.4006317,3184.0,1.0,-0.01,-0.04,-3.6,0.18,-0.37
24958660.0,366159.4435717,3185.0,1.0,-0.0,-0.04,-3.41,0.24,-0.3
24963384.0,366159.5280553,3186.0,1.0,-0.01,-0.04,-3.66,0.18,-0.55
24968116.0,366159.5300856,3187.0,1.0,-0.0,-0.04,-3.54,0.49,-0.24
24972828.0,366159.6134939,3188.0,1.0,-0.0,-0.04,-3.54,0.43,-0.37
24977560.0,366159.6536364,3189.0,0.99,-0.01,-0.04,-3.66,0.18,-0.49
24982284.0,366159.7005856,3190.0,1.0,-0.01,-0.04,-3.78,0.43,-0.43
24987020.0,366159.7481556,3191.0,1.0,-0.01,-0.04,-3.48,0.24,-0.43
24991752.0,366159.7906956,3192.0,1.0,-0.0,-0.04,-3.48,0.43,-0.3
24996456.0,366159.8350745,3193.0,1.0,-0.0,-0.04,-3.48,0.3,-0.24
25001188.0,366159.8771263,3194.0,1.01,-0.01,-0.04,-3.48,0.06,-0.43
25005912.0,366159.9214763,3195.0,1.0,-0.01,-0.04,-3.48,0.3,-0.37
25010640.0,366159.9646677,3196.0,1.0,-0.01,-0.04,-3.54,0.12,-0.24
25015380.0,366160.010961,3197.0,1.0,-0.01,-0.04,-3.66,0.18,-0.24
25020104.0,366160.0555776,3198.0,1.0,-0.0,-0.04,-3.66,0.49,-0.55
25024832.0,366160.1022947,3199.0,1.0,-0.0,-0.04,-3.6,0.12,-0.3
25029540.0,366160.1486806,3200.0,1.0,-0.01,-0.04,-3.66,0.37,-0.3
25034276.0,366160.1534504,3201.0,1.01,-0.0,-0.04,-3.6,-0.12,-0.3
25039004.0,366160.2008174,3202.0,1.0,-0.0,-0.04,-3.41,0.3,-0.43
25043716.0,366160.244039,3203.0,1.0,-0.0,-0.04,-3.48,0.24,-0.18
25048424.0,366160.2879366,3204.0,1.0,-0.01,-0.04,-3.48,0.37,-0.37
25053156.0,366160.3322357,3205.0,1.0,-0.01,-0.05,-3.54,0.67,-0.18
25057892.0,366160.3767858,3206.0,1.0,-0.0,-0.04,-3.72,0.18,-0.24
25062608.0,366160.4212372,3207.0,1.0,-0.01,-0.04,-3.54,0.06,-0.49
25067312.0,366160.5077405,3208.0,1.0,-0.01,-0.04,-3.6,0.0,-0.3
25071984.0,366160.5479048,3209.0,1.0,-0.0,-0.04,-3.41,0.37,-0.06
25076708.0,366160.5959243,3210.0,1.0,-0.0,-0.03,-3.48,-0.24,-0.24
25081432.0,366160.6371557,3211.0,1.0,-0.0,-0.04,-3.48,0.18,0.06
25086132.0,366160.6855376,3212.0,1.0,-0.01,-0.04,-3.66,0.0,-0.43
25090804.0,366160.7287045,3213.0,1.0,-0.0,-0.04,-3.66,0.06,-0.18
25095516.0,366160.774976,3214.0,1.0,-0.01,-0.04,-3.41,0.3,-0.3
25100240.0,366160.8241356,3215.0,1.0,-0.0,-0.03,-3.48,0.18,-0.3
25104964.0,366160.8289722,3216.0,1.0,-0.01,-0.04,-3.66,0.37,-0.43
25109704.0,366160.8750984,3217.0,1.0,-0.0,-0.04,-3.6,0.06,-0.24
25114396.0,366160.9632773,3218.0,1.0,-0.01,-0.05,-3.48,0.06,-0.12
25119120.0,366160.9766647,3219.0,1.0,-0.01,-0.04,-3.54,0.43,-0.24
25123848.0,366161.0531026,3220.0,1.0,-0.01,-0.04,-3.54,0.24,-0.43
25128568.0,366161.0947629,3221.0,1.0,-0.01,-0.04,-3.78,0.3,-0.43
25133296.0,366161.1446621,3222.0,1.0,-0.01,-0.04,-3.84,0.18,-0.3
25138008.0,366161.1934367,3223.0,1.0,-0.0,-0.05,-3.48,0.06,-0.37
25142732.0,366161.2356258,3224.0,1.0,-0.0,-0.05,-3.78,0.18,-0.49
25147452.0,366161.2850053,3225.0,1.0,-0.0,-0.04,-3.66,0.06,-0.18
25152156.0,366161.3267206,3226.0,1.0,-0.01,-0.05,-3.41,0.3,-0.24
25156884.0,366161.3749807,3227.0,1.0,-0.0,-0.04,-3.6,0.18,-0.49
25161584.0,366161.4179172,3228.0,1.0,-0.0,-0.05,-3.35,0.49,-0.37
25166308.0,366161.464388,3229.0,1.0,-0.01,-0.04,-3.54,-0.12,-0.49
25171044.0,366161.5136154,3230.0,1.0,-0.01,-0.04,-3.6,0.0,-0.49
25175716.0,366161.5187816,3231.0,1.0,-0.01,-0.04,-3.96,0.06,-0.37
25180444.0,366161.5650418,3232.0,1.0,-0.01,-0.04,-3.66,0.3,-0.43
25185168.0,366161.6111942,3233.0,1.0,-0.0,-0.05,-3.84,0.06,-0.18
25189880.0,366161.6572922,3234.0,1.0,-0.01,-0.04,-3.66,0.18,-0.43
25194620.0,366161.706706,3235.0,1.0,-0.01,-0.04,-3.54,0.18,-0.43
25199344.0,366161.7515885,3236.0,1.01,0.0,-0.03,-3.66,0.12,-0.43
25204056.0,366161.7972999,3237.0,1.0,-0.0,-0.04,-3.72,0.49,-0.37
25208780.0,366161.8425931,3238.0,1.0,-0.01,-0.04,-3.35,0.12,-0.3
25213500.0,366161.888741,3239.0,1.0,-0.0,-0.04,-3.78,0.43,-0.3
25218220.0,366161.9318258,3240.0,1.0,-0.01,-0.04,-3.66,0.06,-0.06
25222920.0,366161.9801806,3241.0,1.0,-0.0,-0.04,-3.72,0.37,-0.37
25227644.0,366162.0240903,3242.0,1.0,-0.01,-0.04,-3.41,0.37,-0.37
25232392.0,366162.073596,3243.0,1.0,-0.01,-0.04,-3.35,0.24,-0.3
25237112.0,366162.0788318,3244.0,1.0,-0.01,-0.04,-3.29,0.43,-0.37
25241848.0,366162.1243448,3245.0,1.0,-0.0,-0.04,-3.29,0.0,-0.12
25246508.0,366162.2112431,3246.0,1.0,-0.01,-0.04,-3.6,0.37,-0.37
25251236.0,366162.2519886,3247.0,1.0,-0.0,-0.05,-3.54,0.18,-0.24
25255968.0,366162.3002861,3248.0,1.0,-0.0,-0.04,-3.54,0.12,-0.3
25260672.0,366162.3440254,3249.0,1.0,-0.01,-0.04,-3.54,0.06,-0.24
25265400.0,366162.3923492,3250.0,1.0,-0.01,-0.04,-3.6,0.37,-0.18
25270112.0,366162.4411154,3251.0,1.0,-0.0,-0.05,-3.78,0.18,-0.3
25274836.0,366162.4900861,3252.0,1.0,-0.0,-0.04,-3.6,0.18,-0.24
25279552.0,366162.5041885,3253.0,1.0,-0.0,-0.04,-3.72,0.18,-0.43
25284264.0,366162.5809957,3254.0,1.0,-0.0,-0.04,-3.6,0.12,-0.18
25288980.0,366162.6225176,3255.0,1.0,-0.0,-0.04,-3.72,0.37,-0.3
25293692.0,366162.6852433,3256.0,1.0,-0.0,-0.04,-3.29,0.24,-0.3
25298404.0,366162.7622882,3257.0,1.0,-0.01,-0.04,-3.54,0.37,-0.43
25303140.0,366162.8046751,3258.0,1.0,-0.01,-0.04,-3.72,-0.18,-0.3
25307864.0,366162.8535487,3259.0,1.01,-0.0,-0.04,-3.41,0.3,-0.3
25312588.0,366162.8973918,3260.0,1.0,-0.0,-0.04,-3.54,0.0,-0.12
25317256.0,366162.9439951,3261.0,1.0,-0.01,-0.04,-3.54,0.0,-0.24
25321936.0,366162.9896804,3262.0,1.0,-0.01,-0.04,-3.54,0.12,-0.43
25326676.0,366163.0356106,3263.0,1.0,-0.01,-0.04,-3.72,0.12,-0.24
25331400.0,366163.1235556,3264.0,1.0,-0.0,-0.04,-3.78,0.06,-0.37
25336108.0,366163.1379877,3265.0,1.0,-0.0,-0.03,-3.54,0.18,-0.12
25340832.0,366163.2143273,3266.0,1.0,-0.01,-0.05,-3.48,0.55,-0.49
25345560.0,366163.2567441,3267.0,1.0,-0.01,-0.04,-3.41,0.37,-0.12
25350308.0,366163.3058162,3268.0,1.0,-0.0,-0.04,-3.6,0.24,-0.18
25355004.0,366163.3548764,3269.0,1.0,-0.0,-0.04,-3.72,0.0,-0.49
25359672.0,366163.3986753,3270.0,1.0,-0.01,-0.05,-3.6,0.0,-0.12
25364344.0,366163.4457344,3271.0,1.0,-0.0,-0.04,-3.54,0.43,-0.18
25369068.0,366163.4901844,3272.0,1.0,-0.01,-0.04,-3.54,0.37,-0.3
25373796.0,366163.5362779,3273.0,1.0,-0.01,-0.04,-3.72,0.18,-0.49
25378524.0,366163.5823052,3274.0,1.0,-0.01,-0.04,-3.48,0.18,-0.43
25383248.0,366163.6274508,3275.0,1.0,0.0,-0.04,-3.72,0.3,-0.37
25387960.0,366163.7171255,3276.0,1.0,-0.01,-0.04,-3.84,0.24,-0.43
32018268.0,366163.8082887,4681.0,1.0,-0.0,-0.04,-3.35,0.12,-0.24
32022976.0,366163.8519798,4682.0,1.0,-0.0,-0.04,-3.78,0.24,-0.49
32027696.0,366163.9415377,4683.0,1.0,-0.01,-0.05,-3.54,0.12,-0.3
32032420.0,366163.9435576,4684.0,1.0,-0.0,-0.04,-3.66,0.12,-0.06
32037136.0,366164.0322949,4685.0,1.0,-0.01,-0.04,-3.54,0.18,-0.37
32041860.0,366164.0746864,4686.0,1.0,-0.01,-0.05,-3.48,0.24,-0.24
32046596.0,366164.1242082,4687.0,1.0,-0.01,-0.04,-3.72,0.06,-0.06
32051312.0,366164.1688366,4688.0,1.01,-0.0,-0.03,-3.6,0.06,-0.37
32056016.0,366164.2165829,4689.0,1.0,-0.0,-0.04,-3.54,0.37,-0.43
32060740.0,366164.26755,4690.0,1.0,-0.01,-0.04,-3.6,0.06,-0.37
32065464.0,366164.3174211,4691.0,1.01,-0.01,-0.04,-3.41,0.06,-0.55
32070204.0,366164.332268,4692.0,1.0,-0.01,-0.04,-3.6,0.18,-0.24
32074936.0,366164.408858,4693.0,1.0,-0.01,-0.04,-3.23,0.43,-0.37
32079660.0,366164.4579723,4694.0,1.01,-0.0,-0.04,-3.66,0.24,-0.06
32084384.0,366164.5007035,4695.0,1.0,-0.0,-0.04,-3.41,0.24,-0.43
32089116.0,366164.5507507,4696.0,1.0,-0.01,-0.04,-3.48,-0.12,-0.55
32093856.0,366164.6000938,4697.0,1.0,-0.0,-0.04,-3.6,0.18,-0.3
32098572.0,366164.6051992,4698.0,1.0,-0.0,-0.03,-3.48,0.18,-0.3
32103268.0,366164.6520263,4699.0,1.0,-0.0,-0.04,-3.54,0.0,-0.49
32107940.0,366164.7415039,4700.0,1.0,-0.01,-0.04,-3.48,0.37,-0.18
32112680.0,366164.7842367,4701.0,1.0,-0.0,-0.05,-3.54,0.24,-0.55
32117404.0,366164.8341195,4702.0,1.0,-0.01,-0.05,-3.72,0.24,-0.37
32122144.0,366164.8783257,4703.0,1.0,-0.0,-0.04,-3.48,0.12,-0.18
32126868.0,366164.9260961,4704.0,1.0,-0.0,-0.04,-3.6,0.06,-0.18
32131572.0,366164.9721648,4705.0,1.0,-0.01,-0.05,-3.54,0.12,-0.37
32136312.0,366165.022388,4706.0,1.0,-0.01,-0.04,-3.72,0.37,-0.55
32141052.0,366165.0696963,4707.0,1.0,-0.01,-0.04,-3.6,0.37,-0.24
32145776.0,366165.1605788,4708.0,1.0,-0.0,-0.04,-3.66,0.3,-0.06
32150476.0,366165.1653711,4709.0,1.0,-0.0,-0.05,-3.6,0.06,-0.37
32155188.0,366165.2126629,4710.0,1.0,-0.0,-0.04,-3.11,0.3,-0.49
32159904.0,366165.3047089,4711.0,1.0,-0.01,-0.04,-3.66,0.0,-0.49
32164576.0,366165.3127632,4712.0,1.0,-0.01,-0.04,-3.41,0.3,0.12
32169288.0,366165.356753,4713.0,1.0,-0.0,-0.04,-3.66,0.43,-0.24
32174008.0,366165.4026047,4714.0,1.0,-0.0,-0.03,-3.54,0.06,0.0
32178668.0,366165.4520396,4715.0,1.0,-0.01,-0.04,-3.78,0.24,-0.37
32183400.0,366165.5016853,4716.0,1.0,-0.0,-0.04,-3.48,0.24,-0.37
32188112.0,366165.5473912,4717.0,1.0,-0.0,-0.04,-3.35,0.24,-0.24
32192824.0,366165.6484104,4718.0,1.0,-0.01,-0.04,-3.41,0.18,-0.37
32197548.0,366165.7186987,4719.0,1.0,-0.01,-0.04,-3.6,-0.3,-0.37
32202272.0,366165.7991525,4720.0,1.0,-0.01,-0.04,-3.78,0.12,-0.37
32207004.0,366165.8444084,4721.0,1.0,-0.0,-0.04,-3.29,0.67,-0.43
32211712.0,366165.8925509,4722.0,1.0,-0.01,-0.04,-3.66,0.37,-0.3
32216448.0,366165.9841507,4723.0,1.0,-0.01,-0.04,-3.78,0.18,-0.43
32221172.0,366165.9862168,4724.0,1.0,-0.0,-0.04,-3.72,0.24,-0.18
32225888.0,366166.0785678,4725.0,1.0,-0.01,-0.04,-3.48,0.18,-0.24
32230628.0,366166.1218809,4726.0,1.0,-0.01,-0.04,-3.72,0.12,-0.06
32235340.0,366166.1720098,4727.0,1.0,-0.01,-0.05,-3.66,-0.06,-0.49
32240068.0,366166.2180634,4728.0,1.0,-0.01,-0.04,-3.6,0.37,0.18
32244792.0,366166.2663615,4729.0,1.0,-0.0,-0.04,-3.66,0.61,-0.43
32249504.0,366166.3175292,4730.0,1.01,-0.01,-0.04,-3.6,-0.06,-0.43
32254240.0,366166.3659391,4731.0,1.01,-0.01,-0.04,-3.66,0.43,-0.37
32258984.0,366166.4129845,4732.0,1.0,-0.01,-0.05,-3.66,0.43,-0.24
32263708.0,366166.5054511,4733.0,1.0,-0.0,-0.04,-3.6,0.37,-0.37
32268428.0,366166.5093915,4734.0,1.0,-0.01,-0.04,-3.54,0.12,-0.24
32273156.0,366166.5579505,4735.0,1.0,0.0,-0.04,-3.6,0.12,-0.24
32277856.0,366166.6514436,4736.0,1.0,-0.0,-0.04,-3.66,0.24,-0.3
32282564.0,366166.6570256,4737.0,1.0,-0.01,-0.04,-3.41,0.12,0.0
32287236.0,366166.7061047,4738.0,1.0,-0.01,-0.05,-3.41,0.12,-0.43
32291976.0,366166.8003432,4739.0,1.0,-0.0,-0.04,-3.48,0.3,-0.3
32296688.0,366166.8165693,4740.0,1.0,-0.01,-0.04,-3.72,0.24,-0.18
32301416.0,366166.8963465,4741.0,1.01,-0.0,-0.04,-3.54,0.06,-0.43
32306140.0,366166.9404694,4742.0,1.0,-0.0,-0.04,-3.72,0.12,-0.37
32310864.0,366166.9924852,4743.0,1.0,-0.01,-0.04,-3.66,-0.06,-0.18
32315596.0,366167.0401064,4744.0,1.0,-0.01,-0.04,-3.35,0.18,-0.37
32320332.0,366167.0895158,4745.0,1.0,-0.01,-0.05,-3.66,0.3,-0.43
32325056.0,366167.1395717,4746.0,1.0,-0.0,-0.04,-3.66,0.06,-0.18
32329772.0,366167.1855253,4747.0,1.0,-0.0,-0.04,-3.48,0.18,-0.43
32334484.0,366167.2787925,4748.0,1.0,-0.0,-0.04,-3.72,0.18,-0.24
32339200.0,366167.3230896,4749.0,1.0,-0.0,-0.04,-3.54,0.24,-0.24
32343916.0,366167.3763051,4750.0,1.0,-0.01,-0.05,-3.66,0.24,-0.06
32348628.0,366167.4213941,4751.0,1.0,-0.01,-0.03,-3.66,-0.06,-0.55
32353368.0,366167.4742045,4752.0,1.0,-0.0,-0.05,-3.6,0.12,-0.24
32358080.0,366167.521772,4753.0,1.0,-0.0,-0.04,-3.35,0.24,-0.3
32362792.0,366167.572117,4754.0,1.0,-0.01,-0.04,-3.72,0.12,-0.24
32367528.0,366167.618453,4755.0,1.0,-0.0,-0.05,-3.84,0.37,-0.49
32372252.0,366167.6698449,4756.0,1.0,-0.0,-0.04,-3.54,0.24,-0.37
32376984.0,366167.7162073,4757.0,1.0,-0.01,-0.04,-3.54,0.12,-0.24
32381708.0,366167.7687793,4758.0,1.0,-0.01,-0.04,-3.66,0.06,-0.18
32386436.0,366167.817493,4759.0,1.0,-0.0,-0.04,-3.66,0.12,-0.3
32391144.0,366167.8667943,4760.0,1.0,-0.01,-0.04,-3.6,0.18,-0.18
32395872.0,366167.9202963,4761.0,1.0,-0.01,-0.04,-3.41,0.24,-0.06
32400600.0,366167.9667457,4762.0,1.0,-0.01,-0.04,-3.66,0.18,-0.24
32405328.0,366168.0185478,4763.0,1.0,-0.01,-0.04,-3.41,0.18,-0.37
32410060.0,366168.066949,4764.0,1.0,-0.01,-0.04,-3.66,0.12,-0.43
32414804.0,366168.116727,4765.0,1.0,0.0,-0.04,-3.6,0.24,-0.12
32419496.0,366168.2118552,4766.0,1.01,-0.01,-0.04,-3.29,0.3,-0.06
32424224.0,366168.213843,4767.0,1.0,-0.01,-0.04,-3.48,0.43,-0.18
32428960.0,366168.3090992,4768.0,1.0,-0.0,-0.04,-3.54,0.3,-0.3
32433672.0,366168.3111532,4769.0,1.0,-0.01,-0.04,-3.35,0.3,-0.06
32438388.0,366168.4062806,4770.0,1.0,-0.01,-0.05,-3.6,0.18,-0.24
32443100.0,366168.4538135,4771.0,1.0,-0.0,-0.04,-3.66,0.24,-0.24
32447812.0,366168.5046558,4772.0,1.0,-0.01,-0.04,-3.54,0.06,-0.24
32452544.0,366168.5551391,4773.0,1.0,-0.01,-0.04,-3.48,0.06,-0.18
32457276.0,366168.602848,4774.0,1.0,-0.01,-0.05,-3.41,0.18,-0.43
32462016.0,366168.7001885,4775.0,1.0,-0.0,-0.04,-3.6,0.43,-0.3
32466708.0,366168.708079,4776.0,1.0,-0.01,-0.04,-3.6,0.61,-0.37
32471436.0,366168.7559024,4777.0,1.0,-0.01,-0.04,-3.54,0.3,-0.3
32476164.0,366168.8053074,4778.0,1.0,-0.01,-0.04,-3.6,0.24,-0.3
32480872.0,366168.8545407,4779.0,1.0,-0.01,-0.05,-3.66,0.18,-0.3
32485600.0,366168.9513161,4780.0,1.0,-0.01,-0.05,-3.72,0.12,-0.43
32490340.0,366168.9538251,4781.0,1.0,-0.0,-0.04,-3.35,0.12,-0.12
32495068.0,366169.0511433,4782.0,1.0,-0.0,-0.04,-3.6,0.0,-0.43
32499748.0,366169.1050974,4783.0,1.0,-0.01,-0.04,-3.6,0.18,-0.55
32504468.0,366169.1068696,4784.0,1.01,-0.01,-0.04,-3.72,0.12,-0.24
32509216.0,366169.1588522,4785.0,1.01,-0.0,-0.04,-3.54,0.55,-0.3
32513940.0,366169.2063645,4786.0,1.0,-0.01,-0.04,-3.54,0.24,-0.18
32518676.0,366169.3035794,4787.0,1.0,-0.01,-0.04,-3.54,0.12,-0.3
32523416.0,366169.3216816,4788.0,1.0,-0.0,-0.05,-3.54,0.18,-0.24
32528128.0,366169.4032221,4789.0,1.0,-0.0,-0.05,-3.48,0.18,-0.55
32532852.0,366169.4571184,4790.0,1.0,-0.0,-0.04,-3.48,0.24,-0.24
32537564.0,366169.4590579,4791.0,1.0,-0.01,-0.04,-3.6,0.61,-0.37
32542300.0,366169.5557515,4792.0,1.0,-0.0,-0.04,-3.78,0.43,-0.49
32547032.0,366169.6013885,4793.0,1.0,-0.01,-0.04,-3.72,0.12,-0.37
32551772.0,366169.6556745,4794.0,1.0,-0.0,-0.05,-3.48,0.24,-0.37
32556496.0,366169.7050118,4795.0,1.0,-0.0,-0.04,-3.72,0.0,-0.55
32561184.0,366169.7563467,4796.0,1.0,-0.01,-0.04,-3.41,0.43,-0.24
32565916.0,366169.8103024,4797.0,1.0,-0.01,-0.04,-3.54,-0.12,-0.37
32570656.0,366169.8585683,4798.0,1.0,-0.0,-0.04,-3.48,0.24,-0.06
32575348.0,366169.9104013,4799.0,1.0,0.0,-0.04,-3.48,0.3,-0.37
32580048.0,366169.9592367,4800.0,1.0,-0.01,-0.04,-3.48,0.49,-0.12
32584776.0,366170.0087146,4801.0,1.0,-0.0,-0.04,-3.48,0.3,-0.49
32589488.0,366170.0611578,4802.0,1.0,-0.01,-0.04,-3.54,0.3,-0.12
32594208.0,366170.1108533,4803.0,1.0,-0.01,-0.04,-3.41,0.3,-0.37
32598932.0,366170.1618976,4804.0,1.01,-0.0,-0.04,-3.6,0.24,-0.37
32603660.0,366170.2089442,4805.0,1.0,-0.0,-0.04,-3.54,0.06,-0.3
32608388.0,366170.2604309,4806.0,1.0,-0.01,-0.04,-3.54,0.37,-0.43
32613120.0,366170.3087369,4807.0,1.0,-0.01,-0.04,-3.41,0.37,-0.3
32617844.0,366170.3592035,4808.0,1.0,-0.0,-0.04,-3.54,0.06,-0.43
32622552.0,366170.4084755,4809.0,1.0,-0.0,-0.04,-3.6,0.12,-0.43
32627264.0,366170.4580326,4810.0,1.0,-0.01,-0.04,-3.54,0.24,-0.12
32631992.0,366170.5563868,4811.0,1.0,-0.01,-0.04,-3.6,0.24,-0.43
32636720.0,366170.560877,4812.0,1.0,-0.0,-0.04,-3.48,0.18,-0.43
32641444.0,366170.6116358,4813.0,1.0,-0.01,-0.04,-3.6,0.12,-0.43
32646172.0,366170.707879,4814.0,1.0,-0.01,-0.05,-3.6,0.18,0.0
32650836.0,366170.7098237,4815.0,1.0,-0.01,-0.04,-3.6,0.18,-0.24
32655564.0,366170.8070131,4816.0,1.0,-0.01,-0.04,-3.72,0.06,-0.37
32660276.0,366170.8531345,4817.0,1.01,-0.01,-0.04,-3.54,0.06,-0.24
32665000.0,366170.9066671,4818.0,1.0,-0.01,-0.04,-3.41,0.37,-0.24
32669740.0,366170.9604394,4819.0,1.0,-0.01,-0.04,-3.41,0.18,-0.37
32674464.0,366171.0083881,4820.0,1.0,-0.01,-0.04,-3.6,0.12,-0.43
32679192.0,366171.0596184,4821.0,1.0,-0.0,-0.04,-3.41,0.06,-0.3
39314052.0,366171.1597369,6227.0,1.0,-0.01,-0.04,-3.23,0.18,-0.37
39318800.0,366171.2572887,6228.0,1.0,-0.0,-0.05,-3.6,0.0,-0.49
39323468.0,366171.3545723,6229.0,1.0,-0.01,-0.04,-3.35,0.37,-0.3
39328200.0,366171.3600901,6230.0,1.0,-0.01,-0.04,-3.41,0.0,-0.37
39332880.0,366171.4105005,6231.0,1.0,-0.0,-0.05,-3.41,0.43,-0.12
39337588.0,366171.4602062,6232.0,1.0,0.0,-0.05,-3.41,0.55,-0.43
39342312.0,366171.5101624,6233.0,1.0,-0.01,-0.04,-3.54,0.3,-0.24
39347040.0,366171.5598738,6234.0,1.0,-0.01,-0.04,-3.48,0.43,-0.3
39351764.0,366171.6094128,6235.0,1.0,-0.0,-0.04,-3.35,0.3,-0.37
39356496.0,366171.7077623,6236.0,1.0,-0.01,-0.04,-3.66,0.24,-0.3
39361208.0,366171.7132997,6237.0,1.0,-0.01,-0.04,-3.54,0.12,-0.49
39365932.0,366171.7648372,6238.0,1.0,-0.0,-0.04,-3.78,0.24,-0.3
39370644.0,366171.8635312,6239.0,1.0,-0.01,-0.04,-3.35,0.43,-0.3
39375372.0,366171.8654126,6240.0,1.0,-0.01,-0.05,-3.48,0.3,-0.18
39380112.0,366171.9637471,6241.0,1.0,-0.01,-0.04,-3.66,0.24,-0.24
39384836.0,366171.9693504,6242.0,1.0,-0.01,-0.04,-3.72,0.12,-0.18
39389564.0,366172.0207305,6243.0,1.0,-0.01,-0.04,-3.54,0.18,-0.3
39394288.0,366172.119489,6244.0,1.0,-0.0,-0.04,-3.48,0.3,-0.3
39399000.0,366172.1214079,6245.0,1.01,-0.01,-0.04,-3.72,-0.24,-0.3
39403744.0,366172.2199108,6246.0,1.0,-0.01,-0.04,-3.6,0.24,-0.37
39408456.0,366172.2256803,6247.0,1.0,-0.01,-0.04,-3.72,0.12,-0.55
39413188.0,366172.2769682,6248.0,1.0,-0.0,-0.04,-3.48,0.18,-0.61
39417920.0,366172.3770672,6249.0,1.0,-0.01,-0.04,-3.29,0.37,-0.18
39422644.0,366172.425779,6250.0,1.0,-0.01,-0.05,-3.54,0.24,-0.55
39427368.0,366172.4778422,6251.0,1.0,-0.01,-0.04,-3.48,0.12,-0.37
39432104.0,366172.5398104,6252.0,1.0,-0.01,-0.04,-3.48,0.12,-0.43
39436836.0,366172.586556,6253.0,1.0,-0.0,-0.04,-3.6,0.3,-0.18
39441552.0,366172.641795,6254.0,1.0,-0.01,-0.04,-3.41,0.49,-0.24
39446280.0,366172.6911279,6255.0,1.0,-0.0,-0.04,-3.84,0.18,-0.37
39450992.0,366172.7480495,6256.0,1.0,-0.01,-0.04,-3.66,0.06,-0.49
39455716.0,366172.7677165,6257.0,1.0,-0.0,-0.05,-3.48,0.3,-0.55
39460428.0,366172.8520735,6258.0,1.0,-0.01,-0.04,-3.72,0.3,-0.37
39465156.0,366172.8991528,6259.0,1.0,-0.01,-0.04,-3.72,0.24,-0.12
39469884.0,366172.9551209,6260.0,1.0,-0.01,-0.04,-3.48,0.06,-0.3
39474608.0,366173.0060129,6261.0,1.01,-0.01,-0.04,-3.48,0.3,-0.3
39479336.0,366173.061309,6262.0,1.0,-0.01,-0.05,-3.54,0.0,-0.24
39484012.0,366173.1113044,6263.0,1.0,-0.01,-0.04,-3.48,0.3,-0.24
39488744.0,366173.1653597,6264.0,1.0,-0.0,-0.04,-3.66,0.06,-0.37
39493444.0,366173.2216961,6265.0,1.0,-0.0,-0.04,-3.6,0.3,-0.49
39498156.0,366173.2705809,6266.0,1.0,-0.01,-0.04,-3.78,0.3,-0.3
39502876.0,366173.3262519,6267.0,1.0,-0.0,-0.04,-3.66,0.0,-0.06
39507540.0,366173.3321556,6268.0,1.0,-0.01,-0.04,-3.6,0.06,-0.3
39512256.0,366173.4036621,6269.0,1.0,-0.0,-0.04,-3.66,0.37,0.0
39516928.0,366173.4874557,6270.0,1.0,-0.01,-0.04,-3.84,0.43,-0.49
39521652.0,366173.4954239,6271.0,1.0,0.0,-0.04,-3.54,0.06,-0.18
39526356.0,366173.545349,6272.0,1.0,-0.0,-0.04,-3.6,0.12,-0.24
39531068.0,366173.6022199,6273.0,1.0,-0.01,-0.05,-3.35,0.43,-0.3
39535800.0,366173.6527342,6274.0,1.0,-0.0,-0.04,-3.6,0.06,-0.12
39540492.0,366173.7543764,6275.0,1.0,-0.0,-0.05,-3.84,0.3,-0.3
39545204.0,366173.8027173,6276.0,1.0,-0.0,-0.04,-3.72,0.18,-0.49
39549928.0,366173.8578841,6277.0,1.0,-0.01,-0.05,-3.78,0.24,-0.55
39554660.0,366173.9080072,6278.0,1.0,-0.0,-0.04,-3.66,0.0,-0.43
39559340.0,366173.9605541,6279.0,1.0,-0.0,-0.05,-3.54,0.43,-0.06
39564048.0,366174.0106301,6280.0,1.0,-0.01,-0.04,-3.41,0.3,-0.49
39568772.0,366174.0638118,6281.0,1.0,-0.01,-0.04,-3.41,0.06,-0.3
39573484.0,366174.1187591,6282.0,1.0,-0.0,-0.04,-3.54,0.24,-0.18
39578208.0,366174.1687161,6283.0,1.0,-0.0,-0.04,-3.54,0.12,-0.37
39582940.0,366174.2212627,6284.0,1.0,-0.01,-0.04,-3.54,-0.06,-0.49
39587656.0,366174.2766342,6285.0,1.0,-0.01,-0.04,-3.72,0.06,-0.12
39592380.0,366174.3244931,6286.0,1.0,-0.01,-0.04,-3.54,0.24,-0.43
39597124.0,366174.3801693,6287.0,1.0,-0.0,-0.04,-3.48,0.3,-0.37
39601836.0,366174.4083879,6288.0,1.0,-0.0,-0.04,-3.66,0.3,-0.43
39606552.0,366174.4373995,6289.0,1.0,-0.01,-0.04,-3.54,0.3,-0.24
39611288.0,366174.4911216,6290.0,1.0,-0.0,-0.04,-3.78,0.12,-0.18
39615996.0,366174.53981,6291.0,1.0,-0.0,-0.04,-3.6,0.37,-0.37
39620728.0,366174.6414605,6292.0,1.0,-0.01,-0.04,-3.72,0.37,-0.06
39625444.0,366174.6616551,6293.0,1.0,-0.0,-0.04,-3.41,0.12,-0.43
39630168.0,366174.7446206,6294.0,1.0,-0.0,-0.04,-3.72,0.18,-0.49
39634880.0,366174.7926539,6295.0,1.0,-0.0,-0.05,-3.66,0.12,-0.24
39639604.0,366174.8510874,6296.0,1.01,-0.0,-0.04,-3.6,0.12,-0.06
39644324.0,366174.9019626,6297.0,1.0,-0.01,-0.04,-3.6,0.06,-0.37
39649032.0,366174.9553075,6298.0,1.0,-0.01,-0.04,-3.29,0.3,-0.43
39653756.0,366175.0058001,6299.0,1.0,-0.01,-0.04,-3.54,0.18,-0.37
39658492.0,366175.0624886,6300.0,1.0,-0.01,-0.04,-3.66,0.3,-0.24
39663220.0,366175.1138682,6301.0,1.0,-0.0,-0.04,-3.54,0.06,-0.37
39667936.0,366175.1698478,6302.0,1.0,-0.01,-0.04,-3.29,0.43,-0.24
39672660.0,366175.2232454,6303.0,1.0,-0.0,-0.04,-3.54,0.37,-0.37
39677384.0,366175.2739725,6304.0,1.0,-0.01,-0.04,-3.48,0.43,-0.3
39682116.0,366175.3276639,6305.0,1.0,-0.01,-0.04,-3.54,0.18,-0.49
39686844.0,366175.3837965,6306.0,1.0,-0.0,-0.04,-3.29,0.12,-0.37
39691568.0,366175.4325689,6307.0,1.0,-0.01,-0.04,-3.54,0.18,-0.37
39696304.0,366175.4908928,6308.0,1.0,-0.01,-0.04,-3.48,0.49,-0.24
39701036.0,366175.538825,6309.0,1.0,-0.01,-0.05,-3.54,0.55,-0.37
39705780.0,366175.5950358,6310.0,1.0,-0.01,-0.04,-3.84,-0.18,-0.37
39710504.0,366175.6455628,6311.0,1.0,-0.0,-0.05,-3.54,0.12,0.06
39715224.0,366175.6990776,6312.0,1.01,-0.0,-0.04,-3.54,0.12,-0.43
39719964.0,366175.7516025,6313.0,1.0,-0.0,-0.04,-3.72,0.37,-0.37
39724684.0,366175.8037181,6314.0,1.0,-0.01,-0.05,-3.54,0.18,-0.3
39729424.0,366175.8568955,6315.0,1.0,-0.01,-0.04,-3.54,-0.06,-0.12
39734148.0,366175.9087605,6316.0,1.0,-0.01,-0.04,-3.84,0.18,-0.61
39738884.0,366175.9852271,6317.0,1.0,-0.0,-0.04,-3.72,0.24,-0.24
39743600.0,366176.0192054,6318.0,1.0,-0.01,-0.04,-3.6,0.24,-0.37
39748328.0,366176.0718425,6319.0,1.0,-0.01,-0.04,-3.48,0.18,-0.3
39753052.0,366176.1246878,6320.0,1.0,-0.0,-0.04,-3.41,-0.06,-0.18
39757776.0,366176.179579,6321.0,1.0,-0.01,-0.05,-3.72,0.18,-0.37
39762512.0,366176.2348475,6322.0,1.01,-0.01,-0.04,-3.84,0.24,-0.49
39767252.0,366176.3381014,6323.0,1.0,-0.0,-0.04,-3.66,0.3,-0.18
39771956.0,366176.3399349,6324.0,1.0,-0.01,-0.04,-3.66,0.24,-0.24
39776680.0,366176.3951556,6325.0,1.0,-0.01,-0.03,-3.6,0.49,-0.43
39781412.0,366176.4457894,6326.0,1.0,-0.0,-0.04,-3.54,0.43,-0.24
39786120.0,366176.5490317,6327.0,1.0,-0.0,-0.04,-3.72,0.37,-0.18
39790852.0,366176.5702271,6328.0,1.0,-0.01,-0.04,-3.66,0.24,-0.12
39795580.0,366176.654565,6329.0,1.01,-0.01,-0.04,-3.66,0.43,-0.18
39800316.0,366176.6623503,6330.0,1.0,-0.01,-0.04,-3.54,0.24,-0.43
39805048.0,366176.712962,6331.0,1.0,-0.0,-0.04,-3.54,0.18,-0.37
39809760.0,366176.7678462,6332.0,1.0,-0.0,-0.04,-3.78,0.24,-0.85
39814484.0,366176.8211038,6333.0,1.01,-0.01,-0.04,-3.84,0.37,-0.18
39819220.0,366176.8752422,6334.0,1.0,-0.0,-0.05,-3.6,0.12,-0.49
39823948.0,366176.9295683,6335.0,1.0,-0.0,-0.04,-3.41,0.06,-0.37
39828668.0,366176.9857651,6336.0,1.0,-0.01,-0.04,-3.41,0.06,-0.43
39833380.0,366177.0991675,6337.0,1.0,-0.0,-0.04,-3.66,0.12,-0.24
39838092.0,366177.1546769,6338.0,1.0,-0.01,-0.04,-3.72,0.3,-0.3
39842824.0,366177.2035602,6339.0,1.0,-0.01,-0.04,-3.6,0.37,-0.24
39847544.0,366177.2948298,6340.0,1.0,-0.0,-0.04,-3.66,0.12,-0.37
39852276.0,366177.3365037,6341.0,1.0,-0.01,-0.04,-3.72,0.3,-0.3
39856988.0,366177.3880034,6342.0,1.0,-0.0,-0.04,-3.72,-0.06,-0.49
39861712.0,366177.4304471,6343.0,1.0,-0.01,-0.04,-3.66,0.3,-0.49
39866440.0,366177.4760195,6344.0,1.0,-0.0,-0.05,-3.6,0.24,-0.37
39871152.0,366177.5205115,6345.0,1.0,-0.0,-0.03,-3.54,0.18,-0.61
39875880.0,366177.5646742,6346.0,1.0,-0.0,-0.04,-3.6,0.06,-0.37
39880580.0,366177.6516977,6347.0,0.99,-0.01,-0.04,-3.72,0.49,-0.24
39885316.0,366177.6923954,6348.0,1.0,-0.01,-0.04,-3.48,0.06,-0.18
39890036.0,366177.7417115,6349.0,1.01,-0.0,-0.04,-3.48,0.24,-0.3
39894748.0,366177.7838733,6350.0,1.0,-0.0,-0.04,-3.29,0.24,-0.37
39899472.0,366177.8315605,6351.0,1.0,-0.0,-0.05,-3.41,0.24,-0.18
39904200.0,366177.8811414,6352.0,1.0,-0.0,-0.04,-3.6,0.24,-0.12
39908912.0,366177.8858588,6353.0,1.0,-0.01,-0.04,-3.66,0.06,-0.55
39913644.0,366177.9324421,6354.0,1.0,-0.01,-0.05,-3.66,0.06,-0.43
39918356.0,366177.9769008,6355.0,1.0,-0.01,-0.03,-3.66,0.06,-0.3
39923072.0,366178.0217895,6356.0,1.0,-0.0,-0.05,-3.35,-0.06,-0.24
39927796.0,366178.1089755,6357.0,1.0,-0.01,-0.05,-3.84,0.3,-0.18
39932520.0,366178.149717,6358.0,1.0,-0.01,-0.04,-3.6,-0.06,-0.24
39937252.0,366178.1985138,6359.0,1.0,-0.01,-0.05,-3.54,0.24,-0.06
39941964.0,366178.24818,6360.0,1.0,-0.0,-0.04,-3.35,0.37,-0.43
39946700.0,366178.2582509,6361.0,1.0,-0.0,-0.04,-3.41,0.3,-0.3
39951416.0,366178.3017496,6362.0,1.0,-0.0,-0.04,-3.72,0.37,-0.49
39956128.0,366178.3895737,6363.0,1.0,-0.01,-0.04,-3.54,0.24,-0.24
39960864.0,366178.39528,6364.0,1.0,-0.0,-0.04,-3.66,0.3,-0.3
46596312.0,366178.4899155,7770.0,1.0,-0.01,-0.04,-3.6,0.12,-0.55
46601020.0,366178.5353226,7771.0,1.0,-0.01,-0.05,-3.6,0.0,-0.43
46605700.0,366178.6233489,7772.0,1.0,-0.0,-0.04,-3.41,0.24,-0.37
46610424.0,366178.6641202,7773.0,1.0,-0.01,-0.04,-3.66,0.37,-0.3
46615148.0,366178.7130755,7774.0,1.0,-0.0,-0.04,-3.66,-0.18,-0.49
46619880.0,366178.7624288,7775.0,1.0,-0.01,-0.04,-3.41,-0.06,-0.24
46624604.0,366178.7754252,7776.0,1.0,-0.01,-0.04,-3.29,0.18,-0.24
46629328.0,366178.8509435,7777.0,1.0,-0.0,-0.04,-3.54,0.43,-0.3
46634044.0,366178.8910533,7778.0,1.01,-0.0,-0.04,-3.54,0.18,-0.43
46638772.0,366178.9406112,7779.0,1.0,-0.01,-0.04,-3.6,0.24,-0.3
46643488.0,366178.9842049,7780.0,1.0,-0.01,-0.04,-3.41,0.06,-0.43
46648212.0,366179.0307708,7781.0,1.0,-0.0,-0.04,-3.66,0.24,-0.61
46652936.0,366179.0797045,7782.0,1.0,-0.0,-0.04,-3.48,0.43,-0.37
46657668.0,366179.0882858,7783.0,1.0,-0.0,-0.05,-3.41,-0.06,-0.3
46662380.0,366179.133268,7784.0,1.0,-0.01,-0.04,-3.6,0.12,-0.3
46667092.0,366179.1788037,7785.0,1.0,-0.01,-0.03,-3.48,-0.18,-0.55
46671836.0,366179.2261085,7786.0,1.0,-0.01,-0.04,-3.72,0.24,-0.3
46676572.0,366179.2690752,7787.0,1.0,-0.01,-0.04,-3.78,0.06,-0.55
46681300.0,366179.4275306,7788.0,1.0,0.0,-0.04,-3.6,0.06,-0.67
46685992.0,366179.4779788,7789.0,1.0,-0.01,-0.04,-3.72,0.24,-0.37
46690736.0,366179.4839067,7790.0,1.0,-0.0,-0.04,-3.6,0.18,-0.24
46695452.0,366179.5297835,7791.0,1.01,-0.0,-0.04,-3.6,0.24,-0.3
46700160.0,366179.5790355,7792.0,1.0,-0.0,-0.04,-3.54,0.06,-0.61
46704876.0,366179.6238043,7793.0,1.0,-0.01,-0.04,-3.48,0.0,-0.37
46709548.0,366179.6697363,7794.0,1.0,-0.01,-0.04,-3.54,0.37,-0.12
46714284.0,366179.7145229,7795.0,1.0,-0.0,-0.04,-3.54,0.06,-0.55
46719000.0,366179.7598478,7796.0,1.0,-0.01,-0.05,-3.72,0.3,-0.3
46723720.0,366179.8477133,7797.0,1.01,-0.0,-0.04,-3.78,0.12,-0.18
46728452.0,366179.8521406,7798.0,1.0,-0.01,-0.04,-3.6,0.18,-0.3
46733164.0,366179.8994849,7799.0,1.0,-0.01,-0.04,-3.48,0.3,-0.37
46737896.0,366179.9483806,7800.0,1.0,-0.0,-0.04,-3.6,0.0,-0.24
46742564.0,366179.9923062,7801.0,1.0,-0.0,-0.04,-3.29,-0.18,-0.43
46747280.0,366180.0382239,7802.0,1.0,-0.0,-0.04,-3.54,0.49,-0.55
46751996.0,366180.0873355,7803.0,1.0,-0.01,-0.04,-3.6,0.24,-0.49
46756708.0,366180.1360715,7804.0,1.0,-0.0,-0.04,-3.54,0.06,-0.37
46761416.0,366180.1404149,7805.0,1.0,-0.01,-0.04,-3.6,0.18,-0.61
46766148.0,366180.1867589,7806.0,1.0,-0.0,-0.04,-3.6,0.12,-0.3
46770844.0,366180.2483717,7807.0,1.0,-0.0,-0.04,-3.66,0.18,-0.12
46775576.0,366180.2781356,7808.0,1.0,-0.0,-0.04,-3.84,0.49,-0.24
46780300.0,366180.3253637,7809.0,1.0,-0.01,-0.05,-3.72,-0.12,-0.3
46785044.0,366180.3684031,7810.0,1.0,-0.0,-0.05,-3.48,0.24,-0.37
46789776.0,366180.4129399,7811.0,1.0,-0.0,-0.04,-3.66,0.24,-0.18
46794480.0,366180.4607857,7812.0,1.0,-0.0,-0.04,-3.6,0.06,-0.3
46799192.0,366180.5078804,7813.0,1.01,-0.01,-0.04,-3.41,0.3,-0.37
46803924.0,366180.5560145,7814.0,1.0,-0.01,-0.04,-3.48,0.18,-0.55
46808652.0,366180.5988876,7815.0,1.0,-0.01,-0.04,-3.54,0.24,-0.24
46813384.0,366180.6591269,7816.0,1.01,-0.01,-0.04,-3.54,0.43,-0.3
46818116.0,366180.6884349,7817.0,1.01,-0.01,-0.04,-3.48,0.3,-0.06
46822844.0,366180.7762129,7818.0,1.0,-0.0,-0.04,-3.41,0.06,-0.06
46827560.0,366180.7820073,7819.0,1.0,-0.01,-0.04,-3.6,0.18,-0.43
46832284.0,366180.838967,7820.0,1.0,-0.0,-0.04,-3.72,0.12,-0.43
46837016.0,366180.9151942,7821.0,1.0,-0.01,-0.03,-3.6,0.37,-0.3
46841728.0,366180.9594193,7822.0,1.01,-0.01,-0.04,-3.54,0.24,-0.43
46846464.0,366181.0062529,7823.0,1.0,-0.0,-0.04,-3.6,0.24,-0.18
46851180.0,366181.0497627,7824.0,1.0,-0.01,-0.04,-3.72,0.37,-0.24
46855904.0,366181.0963185,7825.0,1.0,-0.01,-0.05,-3.72,0.3,-0.3
46860628.0,366181.1460212,7826.0,1.0,-0.01,-0.04,-3.72,0.0,-0.37
46865308.0,366181.1541007,7827.0,1.0,-0.0,-0.04,-3.72,-0.06,-0.43
46870032.0,366181.1978906,7828.0,1.0,-0.01,-0.05,-3.41,0.3,-0.12
46874764.0,366181.2863026,7829.0,1.01,-0.01,-0.04,-3.66,0.3,-0.24
46879492.0,366181.335314,7830.0,1.01,-0.0,-0.05,-3.35,0.3,-0.24
46884224.0,366181.3372985,7831.0,1.0,-0.0,-0.04,-3.6,0.3,-0.24
46888932.0,366181.3870849,7832.0,1.0,-0.01,-0.05,-3.6,0.49,-0.37
46893664.0,366181.4320064,7833.0,1.0,-0.0,-0.04,-3.66,0.0,-0.3
46898344.0,366181.4780913,7834.0,1.0,-0.0,-0.04,-3.6,0.06,-0.18
46903036.0,366181.5236188,7835.0,1.0,-0.0,-0.04,-3.66,0.18,-0.49
46907760.0,366181.5703148,7836.0,1.0,-0.0,-0.04,-3.6,0.18,-0.37
46912472.0,366181.6591434,7837.0,1.0,-0.01,-0.04,-3.6,-0.24,-0.24
46917196.0,366181.6727781,7838.0,1.0,-0.0,-0.05,-3.54,0.18,-0.24
46921928.0,366181.7493333,7839.0,1.0,-0.01,-0.04,-3.6,0.18,-0.3
46926628.0,366181.7994752,7840.0,1.0,-0.01,-0.04,-3.48,0.55,-0.37
46931360.0,366181.8051508,7841.0,1.0,-0.01,-0.04,-3.6,0.0,-0.43
46936032.0,366181.8510631,7842.0,1.0,-0.01,-0.04,-3.54,0.3,-0.24
46940768.0,366181.9004978,7843.0,1.0,-0.0,-0.04,-3.66,0.24,-0.06
46945480.0,366181.945008,7844.0,1.0,-0.0,-0.04,-3.48,0.24,0.0
46950140.0,366181.9919712,7845.0,1.0,-0.0,-0.05,-3.6,0.24,-0.06
46954852.0,366182.0426958,7846.0,1.0,-0.0,-0.04,-3.66,0.18,-0.18
46959564.0,366182.0507247,7847.0,1.0,-0.01,-0.04,-3.6,0.06,-0.18
46964276.0,366182.0942246,7848.0,1.0,-0.01,-0.04,-3.29,0.12,-0.37
46969008.0,366182.1836237,7849.0,1.0,-0.0,-0.05,-3.54,0.18,-0.49
46973720.0,366182.1894139,7850.0,1.0,-0.0,-0.04,-3.6,0.06,-0.3
46978412.0,366182.2386636,7851.0,1.0,-0.0,-0.05,-3.54,0.12,-0.18
46983136.0,366182.2861002,7852.0,1.0,-0.01,-0.05,-3.6,0.37,-0.43
46987872.0,366182.3348683,7853.0,1.0,-0.01,-0.04,-3.54,0.24,-0.43
46992612.0,366182.3823098,7854.0,1.0,-0.0,-0.04,-3.72,0.18,-0.37
46997324.0,366182.4293373,7855.0,1.0,-0.0,-0.04,-3.9,0.24,-0.49
47002032.0,366182.4747803,7856.0,1.01,-0.0,-0.04,-3.48,0.18,-0.12
47006764.0,366182.5210245,7857.0,1.0,-0.0,-0.04,-3.6,0.18,-0.12
47011476.0,366182.5713877,7858.0,1.0,-0.01,-0.04,-3.29,0.06,-0.37
47016204.0,366182.5945175,7859.0,1.0,-0.01,-0.04,-3.66,0.0,0.06
47020860.0,366182.6246782,7860.0,1.0,-0.0,-0.04,-3.54,0.0,-0.3
47025532.0,366182.7144721,7861.0,1.0,-0.0,-0.04,-3.41,0.24,-0.3
47030256.0,366182.7164558,7862.0,1.0,-0.01,-0.04,-3.6,0.24,-0.3
47034968.0,366182.8076462,7863.0,1.0,-0.01,-0.04,-3.35,0.24,-0.3
47039700.0,366182.8305554,7864.0,1.0,-0.01,-0.03,-3.66,0.3,-0.18
47044412.0,366182.8627836,7865.0,1.0,-0.01,-0.04,-3.35,0.18,-0.24
47049136.0,366182.9117702,7866.0,1.0,-0.0,-0.05,-3.41,0.24,-0.24
47053868.0,366182.9579799,7867.0,1.0,-0.01,-0.04,-3.35,0.12,-0.18
47058592.0,366183.003864,7868.0,1.0,-0.01,-0.04,-3.6,0.24,-0.18
47063324.0,366183.0940408,7869.0,1.0,-0.0,-0.05,-3.29,-0.12,-0.61
47068060.0,366183.0997788,7870.0,1.0,-0.01,-0.05,-3.66,0.24,-0.06
47072784.0,366183.149119,7871.0,1.0,-0.0,-0.04,-3.66,0.12,-0.24
47077516.0,366183.1968577,7872.0,1.0,-0.01,-0.04,-3.54,0.3,-0.37
47082244.0,366183.2411499,7873.0,1.01,-0.0,-0.04,-3.6,0.18,-0.37
47086972.0,366183.2885814,7874.0,1.0,-0.0,-0.04,-3.66,0.0,-0.12
47091640.0,366183.3387154,7875.0,1.0,-0.01,-0.04,-3.6,-0.06,-0.49
47096368.0,366183.349092,7876.0,1.0,-0.0,-0.04,-3.48,0.06,-0.37
47101084.0,366183.3918239,7877.0,1.0,-0.01,-0.04,-3.54,0.06,-0.18
47105796.0,366183.4809053,7878.0,1.0,-0.0,-0.04,-3.6,0.37,-0.37
47110528.0,366183.486806,7879.0,1.01,-0.0,-0.04,-3.35,0.24,-0.49
47115252.0,366183.5331253,7880.0,1.0,-0.01,-0.04,-3.35,0.43,-0.3
47119972.0,366183.6229877,7881.0,1.0,-0.0,-0.04,-3.48,0.0,-0.12
47124656.0,366183.6328443,7882.0,1.0,-0.01,-0.04,-3.54,0.0,-0.24
47129328.0,366183.6745749,7883.0,1.0,-0.01,-0.05,-3.54,-0.06,-0.18
47134064.0,366183.7249229,7884.0,1.0,-0.01,-0.04,-3.72,0.12,-0.18
47138800.0,366183.7702084,7885.0,1.0,-0.01,-0.04,-3.66,0.3,-0.37
47143520.0,366183.8179674,7886.0,1.0,-0.01,-0.05,-3.6,0.0,-0.49
47148200.0,366183.867681,7887.0,1.0,-0.01,-0.04,-3.54,0.3,-0.24
47152908.0,366183.9122487,7888.0,1.01,-0.0,-0.04,-3.35,0.0,-0.37
47157588.0,366183.9617768,7889.0,1.0,-0.0,-0.05,-3.6,-0.12,-0.3
47162312.0,366184.0125061,7890.0,1.0,-0.0,-0.05,-3.6,0.3,-0.18
47167024.0,366184.0551845,7891.0,1.0,-0.0,-0.04,-3.84,0.12,-0.3
47171740.0,366184.1056944,7892.0,1.0,-0.0,-0.04,-3.66,0.24,-0.43
47176452.0,366184.1281692,7893.0,1.0,-0.0,-0.04,-3.48,0.43,-0.18
47181180.0,366184.1703506,7894.0,1.0,-0.0,-0.05,-3.41,0.24,-0.3
47185892.0,366184.2484236,7895.0,1.0,-0.01,-0.04,-3.54,0.3,-0.3
47190616.0,366184.29905,7896.0,1.0,-0.01,-0.05,-3.48,0.37,-0.3
47195344.0,366184.3049106,7897.0,1.0,-0.01,-0.04,-3.66,0.24,-0.43
47200072.0,366184.3519758,7898.0,1.0,0.0,-0.04,-3.66,0.06,-0.12
47204776.0,366184.4017275,7899.0,1.01,-0.01,-0.04,-3.66,0.3,-0.12
47209516.0,366184.4459158,7900.0,1.01,-0.01,-0.03,-3.72,0.06,-0.24
47214240.0,366184.5357949,7901.0,1.0,-0.0,-0.04,-3.54,0.18,-0.3
47218956.0,366184.5434385,7902.0,1.0,-0.01,-0.04,-3.6,0.3,-0.37
47223668.0,366184.5916525,7903.0,1.0,-0.01,-0.04,-3.48,0.24,-0.3
47228396.0,366184.639807,7904.0,1.0,-0.0,-0.04,-3.54,0.24,-0.3
47233128.0,366184.6871932,7905.0,1.0,-0.01,-0.04,-3.48,-0.06,-0.55
47237852.0,366184.7353366,7906.0,1.0,-0.01,-0.05,-3.66,0.12,-0.37
47242588.0,366184.784322,7907.0,1.0,-0.01,-0.04,-3.41,0.18,-0.3
47247312.0,366184.8314399,7908.0,1.0,-0.01,-0.04,-3.66,0.06,-0.43
47252036.0,366184.8796504,7909.0,1.0,-0.0,-0.04,-3.41,0.18,-0.37
47256768.0,366184.9282403,7910.0,1.0,-0.0,-0.04,-3.6,0.43,-0.3
47261480.0,366184.9766408,7911.0,1.01,-0.01,-0.04,-3.66,0.3,-0.12
47266216.0,366185.0210629,7912.0,1.0,-0.01,-0.05,-3.48,0.12,-0.12
47270956.0,366185.112063,7913.0,1.0,-0.01,-0.04,-3.54,0.3,-0.12
47275668.0,366185.1178633,7914.0,1.0,-0.01,-0.04,-3.6,0.06,0.0
47280332.0,366185.1656424,7915.0,1.0,-0.01,-0.04,-3.66,0.43,-0.24
47285056.0,366185.2121496,7916.0,1.0,-0.01,-0.04,-3.78,0.06,-0.43
47289784.0,366185.2600283,7917.0,1.0,-0.0,-0.04,-3.66,0.3,-0.12
47294500.0,366185.3103938,7918.0,1.0,-0.0,-0.03,-3.54,0.24,-0.18
47299220.0,366185.3556754,7919.0,1.0,-0.01,-0.04,-3.48,0.06,-0.37
47303952.0,366185.4040273,7920.0,1.0,-0.0,-0.04,-3.66,0.37,-0.55
47308680.0,366185.4550241,7921.0,1.0,-0.0,-0.04,-3.54,0.3,-0.3
47313388.0,366185.5018251,7922.0,1.0,-0.01,-0.04,-3.41,0.43,-0.37
47318140.0,366185.5493033,7923.0,1.0,-0.01,-0.04,-3.72,0.06,-0.18
47322852.0,366185.6416373,7924.0,1.01,-0.0,-0.04,-3.66,0.3,-0.49
47327580.0,366185.6475094,7925.0,1.0,-0.0,-0.04,-3.48,-0.06,-0.3
47332292.0,366185.6950457,7926.0,1.0,-0.01,-0.04,-3.54,0.0,-0.18
47336964.0,366185.7887034,7927.0,1.0,-0.01,-0.04,-3.48,0.37,-0.49
53971584.0,366185.8867512,9333.0,1.0,-0.01,-0.04,-3.41,0.3,-0.24
53976316.0,366185.9359039,9334.0,1.0,-0.01,-0.04,-3.6,0.18,-0.18
53981028.0,366186.0288371,9335.0,1.0,-0.01,-0.04,-3.41,0.3,-0.24
53985760.0,366186.0714435,9336.0,1.0,-0.01,-0.04,-3.54,0.24,-0.06
53990488.0,366186.1229153,9337.0,1.0,-0.01,-0.04,-3.35,0.24,-0.12
53995216.0,366186.174497,9338.0,1.0,-0.0,-0.04,-3.35,0.3,-0.24
53999928.0,366186.2197029,9339.0,1.0,-0.0,-0.05,-3.54,0.3,-0.43
54004652.0,366186.2704954,9340.0,1.0,-0.0,-0.05,-3.48,0.24,-0.24
54009376.0,366186.317229,9341.0,1.01,-0.0,-0.04,-3.48,0.12,-0.37
54014116.0,366186.3643497,9342.0,1.0,-0.0,-0.04,-3.66,-0.06,-0.24
54018832.0,366186.4165389,9343.0,1.0,-0.0,-0.03,-3.41,0.3,-0.49
54023544.0,366186.4629721,9344.0,1.01,-0.0,-0.05,-3.66,0.55,-0.18
54028280.0,366186.5105634,9345.0,1.0,-0.01,-0.04,-3.54,0.3,-0.18
54033004.0,366186.5600737,9346.0,1.0,-0.01,-0.04,-3.72,0.49,-0.37
54037744.0,366186.6069799,9347.0,1.0,-0.01,-0.04,-3.66,0.37,-0.24
54042468.0,366186.65752,9348.0,1.0,-0.0,-0.05,-3.6,0.3,-0.49
54047180.0,366186.7029771,9349.0,1.0,-0.0,-0.05,-3.54,0.55,-0.18
54051912.0,366186.7511038,9350.0,1.0,-0.01,-0.04,-3.35,0.18,-0.49
54056640.0,366186.8020289,9351.0,1.01,-0.0,-0.05,-3.41,0.06,-0.37
54061372.0,366186.8472586,9352.0,1.0,-0.01,-0.04,-3.41,0.24,-0.43
54066108.0,366186.8978754,9353.0,1.0,-0.0,-0.04,-3.78,0.43,-0.37
54070832.0,366186.9428305,9354.0,1.0,-0.0,-0.05,-3.6,0.3,-0.24
54075552.0,366186.9958552,9355.0,1.0,-0.01,-0.04,-3.41,0.24,-0.43
54080276.0,366187.0391143,9356.0,1.0,-0.01,-0.05,-3.54,0.24,-0.3
54085000.0,366187.1334328,9357.0,1.0,-0.01,-0.04,-3.54,0.43,-0.37
54089744.0,366187.1763837,9358.0,1.0,-0.0,-0.04,-3.66,0.24,-0.37
54094460.0,366187.22788,9359.0,1.0,-0.0,-0.04,-3.48,0.37,-0.3
54099180.0,366187.2369977,9360.0,1.0,-0.0,-0.04,-3.29,0.24,-0.18
54103904.0,366187.2828964,9361.0,1.0,-0.01,-0.05,-3.41,0.18,-0.61
54108640.0,366187.3757272,9362.0,1.0,-0.01,-0.04,-3.29,0.06,-0.37
54113372.0,366187.4185714,9363.0,1.0,-0.0,-0.04,-3.66,0.24,-0.43
54118084.0,366187.4705117,9364.0,1.0,-0.0,-0.04,-3.66,0.12,-0.12
54122808.0,366187.5137194,9365.0,1.0,-0.01,-0.04,-3.78,0.49,-0.37
54127532.0,366187.566336,9366.0,1.0,-0.01,-0.04,-3.41,0.24,-0.3
54132260.0,366187.6137915,9367.0,1.0,-0.01,-0.04,-3.48,0.3,-0.3
54136976.0,366187.6626627,9368.0,1.0,-0.01,-0.05,-3.6,0.37,-0.3
54141692.0,366187.7091319,9369.0,1.0,-0.01,-0.04,-3.54,0.3,-0.37
54146428.0,366187.7580285,9370.0,1.01,-0.0,-0.04,-3.78,0.24,-0.61
54151156.0,366187.8048113,9371.0,1.0,-0.0,-0.04,-3.48,0.3,-0.12
54155868.0,366187.8553052,9372.0,1.0,-0.01,-0.04,-3.72,0.49,-0.18
54160596.0,366187.9040465,9373.0,1.0,-0.01,-0.04,-3.35,0.37,-0.43
54165320.0,366187.9514024,9374.0,1.0,-0.01,-0.04,-3.41,0.12,-0.3
54170044.0,366187.9993588,9375.0,1.0,-0.01,-0.04,-3.54,0.12,-0.49
54174776.0,366188.0474366,9376.0,1.0,-0.01,-0.04,-3.41,0.37,-0.3
54179500.0,366188.0948184,9377.0,1.0,-0.0,-0.04,-3.66,0.0,-0.37
54184180.0,366188.1874332,9378.0,1.0,-0.01,-0.04,-3.66,0.24,-0.37
54188904.0,366188.1931741,9379.0,1.01,-0.01,-0.04,-3.78,0.12,-0.3
54193640.0,366188.2411641,9380.0,1.0,-0.0,-0.04,-3.54,0.18,-0.24
54198352.0,366188.3351395,9381.0,1.0,-0.01,-0.04,-3.54,0.0,-0.43
54203024.0,366188.3370336,9382.0,1.0,-0.0,-0.04,-3.78,0.37,-0.3
54207756.0,366188.4297238,9383.0,1.0,-0.01,-0.04,-3.6,0.37,-0.06
54212468.0,366188.4317227,9384.0,1.0,-0.0,-0.05,-3.35,0.06,-0.24
54217180.0,366188.5248255,9385.0,1.0,-0.01,-0.04,-3.48,0.24,-0.37
54221920.0,366188.5404677,9386.0,1.0,-0.0,-0.04,-3.6,0.0,-0.49
54226580.0,366188.6195215,9387.0,1.0,-0.01,-0.04,-3.54,0.43,-0.24
54231320.0,366188.6252489,9388.0,1.0,-0.01,-0.04,-3.6,0.37,-0.24
54236044.0,366188.6732451,9389.0,1.0,-0.01,-0.04,-3.6,0.18,-0.24
54240772.0,366188.7663807,9390.0,1.01,-0.01,-0.04,-3.48,0.18,-0.37
54245520.0,366188.8105126,9391.0,1.0,-0.0,-0.03,-3.54,0.0,-0.49
54250188.0,366188.8638476,9392.0,1.0,-0.01,-0.03,-3.41,-0.12,-0.12
54254932.0,366188.9099566,9393.0,1.0,-0.01,-0.04,-3.54,0.37,-0.43
54259668.0,366188.9603961,9394.0,1.0,-0.0,-0.04,-3.41,0.18,-0.67
54264392.0,366189.0063942,9395.0,1.0,-0.0,-0.04,-3.41,0.37,-0.49
54269124.0,366189.0555881,9396.0,1.0,-0.01,-0.04,-3.35,0.12,-0.3
54273848.0,366189.1017884,9397.0,1.0,-0.01,-0.04,-3.66,0.24,-0.49
54278576.0,366189.1505227,9398.0,1.0,-0.01,-0.04,-3.6,0.18,-0.49
54283308.0,366189.1984406,9399.0,1.0,-0.01,-0.04,-3.6,0.06,-0.3
54288000.0,366189.2620008,9400.0,1.0,-0.01,-0.04,-3.48,0.18,-0.12
54292744.0,366189.3424485,9401.0,1.0,0.0,-0.04,-3.54,0.43,-0.18
54297444.0,366189.3858932,9402.0,1.01,-0.0,-0.04,-3.54,0.3,-0.37
54302176.0,366189.4382504,9403.0,1.0,-0.0,-0.04,-3.66,0.18,-0.12
54306904.0,366189.4846384,9404.0,1.0,-0.0,-0.04,-3.48,0.18,-0.61
54311628.0,366189.5337124,9405.0,1.0,-0.01,-0.04,-3.72,0.3,-0.24
54316352.0,366189.5820114,9406.0,1.01,-0.0,-0.04,-3.6,0.12,-0.3
54321080.0,366189.630711,9407.0,1.0,-0.0,-0.04,-3.54,0.06,-0.12
54325792.0,366189.6820992,9408.0,1.0,-0.0,-0.04,-3.48,0.12,-0.3
54330508.0,366189.7293564,9409.0,1.0,-0.01,-0.05,-3.54,0.12,-0.49
54335236.0,366189.8246271,9410.0,1.0,-0.01,-0.04,-3.54,0.18,-0.43
54339972.0,366189.8678198,9411.0,1.0,-0.0,-0.05,-3.6,0.12,-0.24
54344680.0,366189.9205262,9412.0,1.0,-0.0,-0.05,-3.41,0.37,-0.06
54349392.0,366189.9663718,9413.0,1.0,-0.01,-0.04,-3.41,0.0,-0.24
54354080.0,366190.016763,9414.0,1.0,-0.0,-0.05,-3.66,0.18,-0.3
54358792.0,366190.0641071,9415.0,1.0,-0.0,-0.04,-3.54,0.49,-0.37
54363516.0,366190.1136148,9416.0,1.0,-0.01,-0.04,-3.78,0.43,0.0
54368188.0,366190.1599255,9417.0,1.0,-0.0,-0.05,-3.35,0.24,-0.12
54372912.0,366190.2099057,9418.0,1.0,-0.0,-0.04,-3.72,0.24,-0.43
54377640.0,366190.2567985,9419.0,1.0,-0.01,-0.04,-3.78,0.3,-0.49
54382352.0,366190.3055439,9420.0,1.0,-0.01,-0.04,-3.72,0.24,-0.12
54387088.0,366190.3522994,9421.0,1.0,-0.01,-0.04,-3.6,0.24,-0.49
54391820.0,366190.4026353,9422.0,1.0,-0.01,-0.04,-3.66,0.43,-0.06
54396540.0,366190.4975443,9423.0,1.0,-0.01,-0.04,-3.6,0.24,-0.24
54401268.0,366190.4995583,9424.0,1.0,-0.01,-0.04,-3.6,0.0,-0.43
54405940.0,366190.5936202,9425.0,1.0,-0.0,-0.04,-3.54,0.24,-0.18
54410652.0,366190.6373991,9426.0,1.0,-0.01,-0.04,-3.54,0.18,-0.24
54415384.0,366190.6899683,9427.0,1.0,-0.0,-0.04,-3.54,0.3,-0.37
54420092.0,366190.7356422,9428.0,1.0,-0.01,-0.05,-3.54,0.37,-0.18
54424832.0,366190.786367,9429.0,1.0,-0.0,-0.04,-3.29,0.24,-0.3
54429532.0,366190.8330086,9430.0,1.0,-0.0,-0.05,-3.35,-0.06,-0.55
54434248.0,366190.882441,9431.0,1.0,-0.0,-0.04,-3.66,0.06,-0.49
54438968.0,366190.9307069,9432.0,1.0,-0.0,-0.04,-3.66,0.3,-0.3
54443676.0,366190.9795138,9433.0,1.0,-0.01,-0.04,-3.6,0.43,-0.43
54448404.0,366191.0291792,9434.0,1.0,-0.0,-0.04,-3.6,0.0,-0.18
54453064.0,366191.0753031,9435.0,1.01,-0.01,-0.04,-3.48,0.06,-0.37
54457800.0,366191.1695502,9436.0,1.0,-0.0,-0.04,-3.41,0.24,-0.43
54462532.0,366191.1861109,9437.0,1.0,-0.01,-0.05,-3.48,0.37,-0.06
54467260.0,366191.26601,9438.0,1.0,-0.01,-0.05,-3.6,-0.12,-0.37
54471992.0,366191.3107026,9439.0,1.0,-0.01,-0.04,-3.72,0.49,-0.43
54476732.0,366191.3645447,9440.0,1.0,-0.01,-0.04,-3.48,0.12,-0.3
54481452.0,366191.4112816,9441.0,1.01,-0.01,-0.03,-3.54,0.0,-0.49
54486148.0,366191.4625653,9442.0,1.0,-0.0,-0.04,-3.6,0.49,0.06
54490836.0,366191.5588827,9443.0,1.0,-0.01,-0.04,-3.54,0.12,0.0
54495520.0,366191.5751574,9444.0,1.0,-0.01,-0.04,-3.54,0.12,-0.55
54500244.0,366191.6552376,9445.0,1.0,-0.01,-0.04,-3.72,0.24,-0.24
54504968.0,366191.6994373,9446.0,1.0,-0.01,-0.04,-3.48,0.3,-0.24
54509700.0,366191.7523395,9447.0,1.01,-0.0,-0.04,-3.6,0.49,-0.18
54514412.0,366191.8052883,9448.0,1.0,-0.0,-0.04,-3.23,0.3,-0.24
54519136.0,366191.8565931,9449.0,1.0,-0.01,-0.04,-3.72,0.3,-0.55
54523872.0,366191.9067238,9450.0,1.01,-0.0,-0.04,-3.72,0.06,-0.3
54528580.0,366191.9547375,9451.0,1.0,-0.0,-0.04,-3.6,0.3,-0.61
54533300.0,366192.0038815,9452.0,1.0,-0.01,-0.04,-3.35,0.18,-0.49
54538024.0,366192.0989431,9453.0,1.0,-0.0,-0.04,-3.6,0.12,-0.24
54542736.0,366192.115494,9454.0,1.01,-0.01,-0.04,-3.48,0.3,-0.37
54547484.0,366192.1950674,9455.0,1.0,-0.0,-0.04,-3.54,0.43,-0.3
54552192.0,366192.2397692,9456.0,1.0,-0.01,-0.04,-3.54,0.37,-0.18
54556932.0,366192.2926499,9457.0,1.01,-0.01,-0.04,-3.66,0.12,-0.18
54561668.0,366192.3362501,9458.0,1.0,-0.01,-0.04,-3.29,0.06,-0.3
54566380.0,366192.3886743,9459.0,1.01,-0.01,-0.04,-3.48,0.12,-0.18
54571124.0,366192.4354417,9460.0,1.0,-0.01,-0.04,-3.6,0.24,-0.18
54575836.0,366192.4858276,9461.0,1.01,-0.0,-0.04,-3.66,0.18,-0.18
54580560.0,366192.5362007,9462.0,1.0,-0.01,-0.05,-3.6,0.24,-0.55
54585288.0,366192.5828067,9463.0,1.0,-0.01,-0.04,-3.66,0.3,-0.06
54589996.0,366192.6339925,9464.0,1.0,-0.0,-0.05,-3.54,0.3,-0.24
54594712.0,366192.6804667,9465.0,1.0,-0.0,-0.04,-3.66,0.37,-0.43
54599424.0,366192.7316488,9466.0,1.0,-0.0,-0.04,-3.54,0.24,-0.37
54604148.0,366192.7788305,9467.0,1.0,-0.0,-0.05,-3.66,0.3,-0.3
54608860.0,366192.8272467,9468.0,1.0,-0.0,-0.04,-3.41,0.3,-0.3
54613572.0,366192.879441,9469.0,1.0,-0.0,-0.04,-3.6,0.18,-0.37
54618288.0,366192.9865325,9470.0,1.0,-0.01,-0.05,-3.6,0.61,-0.12
54623016.0,366193.0555014,9471.0,1.0,-0.0,-0.04,-3.66,0.18,-0.06
54627728.0,366193.1362003,9472.0,1.0,-0.01,-0.04,-3.48,0.18,-0.18
61227780.0,366193.1850636,10860.0,1.0,-0.0,-0.04,-3.48,0.3,-0.12
61232560.0,366193.2343281,10861.0,1.0,-0.0,-0.04,-3.54,0.0,-0.3
61237284.0,366193.3292209,10862.0,1.0,-0.0,-0.04,-3.9,0.0,-0.12
61241996.0,366193.3314846,10863.0,1.0,-0.01,-0.04,-3.6,0.18,-0.49
61246784.0,366193.4260122,10864.0,1.0,-0.0,-0.04,-3.29,0.06,-0.24
61251548.0,366193.4699779,10865.0,1.0,-0.01,-0.04,-3.48,0.3,-0.3
61256320.0,366193.5225945,10866.0,1.0,-0.01,-0.04,-3.66,0.0,-0.49
61261056.0,366193.5675694,10867.0,1.0,-0.01,-0.04,-3.6,0.06,-0.43
61265828.0,366193.6198607,10868.0,1.0,-0.0,-0.03,-3.66,-0.06,-0.43
61270612.0,366193.6670354,10869.0,1.0,-0.0,-0.04,-3.66,0.24,-0.3
61275392.0,366193.7171983,10870.0,1.0,-0.01,-0.05,-3.6,0.18,-0.37
61280172.0,366193.7671303,10871.0,1.0,-0.0,-0.04,-3.48,0.12,-0.3
61284936.0,366193.8139841,10872.0,1.0,-0.0,-0.04,-3.66,0.24,-0.37
61289724.0,366193.9101963,10873.0,1.0,-0.01,-0.04,-3.78,0.06,-0.37
61294492.0,366193.9123059,10874.0,1.0,-0.01,-0.04,-3.41,0.37,0.0
61299220.0,366194.0083708,10875.0,1.01,-0.01,-0.04,-3.6,0.24,-0.43
61304020.0,366194.0524118,10876.0,1.0,-0.01,-0.04,-3.35,0.24,-0.43
61308804.0,366194.1048872,10877.0,1.0,-0.01,-0.04,-3.66,0.0,-0.24
61313532.0,366194.1584232,10878.0,1.0,-0.01,-0.04,-3.48,0.18,-0.43
61318332.0,366194.2022426,10879.0,1.0,-0.01,-0.05,-3.84,0.06,-0.37
61323100.0,366194.2550034,10880.0,1.0,0.0,-0.04,-3.6,0.24,-0.43
61327860.0,366194.2994345,10881.0,1.0,-0.0,-0.04,-3.48,0.3,-0.24
61332640.0,366194.3525919,10882.0,1.0,-0.01,-0.05,-3.54,-0.06,-0.24
61337424.0,366194.4004324,10883.0,1.0,-0.0,-0.04,-3.6,0.06,-0.24
61342184.0,366194.4686103,10884.0,1.0,-0.0,-0.04,-3.35,0.37,-0.43
61346972.0,366194.5492467,10885.0,1.0,-0.0,-0.04,-3.54,0.12,-0.37
61351744.0,366194.5965068,10886.0,1.0,-0.0,-0.04,-3.41,0.3,-0.37
61356512.0,366194.6466072,10887.0,1.0,-0.01,-0.04,-3.6,0.3,-0.55
61361300.0,366194.6937794,10888.0,1.01,-0.0,-0.04,-3.35,0.18,-0.24
61366084.0,366194.744637,10889.0,1.0,-0.01,-0.04,-3.35,0.3,-0.24
61370864.0,366194.792504,10890.0,1.0,-0.0,-0.04,-3.66,0.3,-0.49
61375644.0,366194.843274,10891.0,1.0,-0.01,-0.04,-3.41,0.3,-0.49
61380416.0,366194.8969307,10892.0,1.0,-0.01,-0.05,-3.41,0.3,-0.18
61385196.0,366194.8989137,10893.0,1.0,-0.0,-0.04,-3.48,0.24,-0.43
61389984.0,366194.9936712,10894.0,1.0,-0.01,-0.04,-3.48,0.24,-0.18
61394768.0,366195.0378754,10895.0,1.0,-0.01,-0.04,-3.29,0.06,-0.37
61399548.0,366195.0915599,10896.0,1.0,-0.0,-0.04,-3.6,0.06,-0.49
61404324.0,366195.1384379,10897.0,1.0,-0.01,-0.05,-3.72,0.37,-0.3
61409104.0,366195.1890893,10898.0,1.0,0.0,-0.04,-3.6,0.06,-0.3
61413852.0,366195.2352799,10899.0,1.0,-0.01,-0.03,-3.66,-0.12,-0.3
61418652.0,366195.2848778,10900.0,1.0,-0.01,-0.04,-3.23,0.43,-0.37
61423432.0,366195.3336701,10901.0,1.0,-0.01,-0.04,-3.6,0.18,-0.37
61428216.0,366195.381946,10902.0,1.0,-0.0,-0.05,-3.54,0.49,-0.18
61433004.0,366195.4331127,10903.0,1.0,-0.01,-0.05,-3.54,0.06,-0.37
61437784.0,366195.480505,10904.0,1.0,-0.01,-0.04,-3.41,0.18,-0.24
61442580.0,366195.5313664,10905.0,1.01,-0.0,-0.05,-3.35,0.24,-0.37
61447364.0,366195.5930267,10906.0,1.0,-0.01,-0.04,-3.66,0.06,-0.3
61452124.0,366195.6734241,10907.0,1.0,-0.01,-0.04,-3.41,0.0,-0.24
61456852.0,366195.7258705,10908.0,1.01,-0.01,-0.04,-3.29,0.12,-0.55
61461652.0,366195.7281058,10909.0,1.0,-0.0,-0.04,-3.6,0.06,-0.43
61466408.0,366195.8236038,10910.0,1.0,-0.01,-0.04,-3.6,0.06,-0.43
61471180.0,366195.8680125,10911.0,1.0,-0.01,-0.04,-3.54,0.24,-0.49
61475968.0,366195.9213073,10912.0,1.0,-0.0,-0.04,-3.6,0.55,-0.06
61480716.0,366195.9673659,10913.0,1.0,-0.0,-0.05,-3.48,0.3,-0.49
61485492.0,366196.0173506,10914.0,1.0,-0.0,-0.05,-3.41,0.18,-0.43
61490268.0,366196.0649807,10915.0,1.0,-0.0,-0.04,-3.6,-0.18,-0.43
61495032.0,366196.1153245,10916.0,1.0,-0.01,-0.04,-3.6,0.18,-0.37
61499820.0,366196.1664805,10917.0,1.0,-0.0,-0.04,-3.6,0.18,-0.37
61504596.0,366196.2127003,10918.0,1.0,-0.01,-0.04,-3.66,0.12,-0.12
61509380.0,366196.3089692,10919.0,1.0,-0.0,-0.04,-3.54,0.3,-0.24
61514140.0,366196.3265266,10920.0,1.0,-0.01,-0.04,-3.6,0.24,-0.37
61518928.0,366196.4067112,10921.0,1.01,-0.0,-0.05,-3.54,0.3,-0.3
61523700.0,366196.4506521,10922.0,1.0,-0.01,-0.05,-3.78,0.24,-0.43
61528480.0,366196.5032159,10923.0,1.0,0.0,-0.05,-3.48,0.49,-0.18
61533244.0,366196.5511393,10924.0,1.0,-0.01,-0.05,-3.9,0.0,-0.3
61537952.0,366196.6013531,10925.0,1.0,-0.0,-0.04,-3.54,0.18,-0.24
61542732.0,366196.6492682,10926.0,1.0,-0.01,-0.04,-3.72,0.37,-0.43
61547516.0,366196.6981466,10927.0,1.0,-0.0,-0.04,-3.48,0.43,-0.24
61552288.0,366196.7514708,10928.0,1.0,-0.0,-0.04,-3.29,0.18,-0.24
61557068.0,366196.7984392,10929.0,1.0,-0.01,-0.04,-3.6,0.06,-0.37
61561848.0,366196.8478897,10930.0,1.0,-0.01,-0.04,-3.54,-0.06,-0.24
61566632.0,366196.8957213,10931.0,1.0,-0.0,-0.04,-3.54,0.06,-0.18
61571400.0,366196.9461763,10932.0,1.0,-0.0,-0.05,-3.48,0.43,-0.18
61576184.0,366196.9949747,10933.0,1.0,-0.01,-0.04,-3.48,0.12,-0.43
61580964.0,366197.0437071,10934.0,1.01,-0.01,-0.04,-3.48,0.18,-0.43
61585756.0,366197.1386135,10935.0,1.0,-0.01,-0.04,-3.66,0.37,-0.3
61590544.0,366197.1831284,10936.0,1.0,-0.0,-0.04,-3.54,0.06,-0.37
61595300.0,366197.2359637,10937.0,1.0,-0.0,-0.04,-3.41,0.12,-0.37
61600084.0,366197.2826712,10938.0,1.0,-0.01,-0.04,-3.41,0.49,-0.12
61604860.0,366197.3326568,10939.0,1.0,0.0,-0.04,-3.48,-0.06,0.0
61609568.0,366197.3805438,10940.0,1.0,-0.01,-0.04,-3.6,0.24,-0.24
61614356.0,366197.4301931,10941.0,1.0,-0.01,-0.04,-3.6,0.37,-0.18
61619136.0,366197.4787282,10942.0,1.0,-0.0,-0.04,-3.48,0.24,-0.43
61623912.0,366197.5434708,10943.0,1.0,-0.0,-0.04,-3.66,0.55,-0.37
61628700.0,366197.6239123,10944.0,1.0,-0.0,-0.04,-3.41,0.24,-0.43
61633480.0,366197.6685295,10945.0,1.0,-0.0,-0.04,-3.66,0.3,-0.61
61638252.0,366197.7218917,10946.0,1.0,-0.0,-0.04,-3.54,0.3,-0.37
61643032.0,366197.7748014,10947.0,1.0,-0.01,-0.04,-3.78,0.24,-0.18
61647812.0,366197.7769921,10948.0,1.0,-0.0,-0.04,-3.48,0.37,-0.24
61652584.0,366197.8727823,10949.0,1.0,-0.0,-0.04,-3.35,0.24,-0.24
61657364.0,366197.9195495,10950.0,1.0,-0.0,-0.04,-3.48,0.06,-0.37
61662128.0,366197.9699427,10951.0,1.0,-0.01,-0.04,-3.23,0.06,-0.43
61666908.0,366198.0164525,10952.0,1.0,-0.0,-0.05,-3.6,0.37,-0.49
61671696.0,366198.0664408,10953.0,1.0,-0.0,-0.04,-3.54,-0.06,-0.24
61676472.0,366198.1159424,10954.0,1.0,-0.0,-0.04,-3.66,0.3,-0.18
61681244.0,366198.1647279,10955.0,1.0,-0.01,-0.04,-3.48,0.24,-0.49
61686032.0,366198.2604378,10956.0,1.0,-0.01,-0.04,-3.54,0.12,-0.18
61690816.0,366198.2771949,10957.0,1.0,-0.01,-0.04,-3.54,0.37,-0.43
61695608.0,366198.3578977,10958.0,1.0,-0.0,-0.04,-3.66,0.49,-0.18
61700384.0,366198.4018059,10959.0,1.01,-0.01,-0.04,-3.54,0.18,-0.37
61705180.0,366198.4544025,10960.0,1.0,-0.01,-0.04,-3.6,-0.06,-0.24
61709964.0,366198.5010211,10961.0,1.0,-0.0,-0.04,-3.41,0.18,-0.37
61714752.0,366198.5508385,10962.0,1.0,-0.01,-0.05,-3.54,-0.06,-0.12
61719544.0,366198.6467324,10963.0,1.0,-0.01,-0.04,-3.41,0.12,-0.61
61724324.0,366198.6631248,10964.0,1.0,-0.01,-0.04,-3.35,0.3,-0.3
61729100.0,366198.7438594,10965.0,1.0,-0.01,-0.04,-3.54,0.12,-0.3
61733880.0,366198.7882995,10966.0,1.0,-0.0,-0.04,-3.66,0.24,-0.06
61738644.0,366198.8415452,10967.0,1.0,-0.01,-0.03,-3.54,0.12,-0.37
61743432.0,366198.8949765,10968.0,1.0,-0.01,-0.05,-3.72,0.49,-0.24
61748228.0,366198.9114183,10969.0,1.0,-0.01,-0.04,-3.6,-0.12,-0.18
61753004.0,366198.9919403,10970.0,1.0,-0.01,-0.04,-3.35,0.06,-0.49
61757776.0,366199.0360678,10971.0,1.0,-0.01,-0.04,-3.66,0.0,-0.18
61762504.0,366199.0902589,10972.0,1.0,-0.01,-0.04,-3.6,0.18,-0.37
61767284.0,366199.1371448,10973.0,1.01,-0.01,-0.04,-3.66,0.49,-0.43
61772084.0,366199.1870884,10974.0,1.0,-0.0,-0.04,-3.66,0.3,-0.37
61776872.0,366199.2821495,10975.0,1.0,-0.01,-0.04,-3.48,0.18,-0.37
61781652.0,366199.2991279,10976.0,1.01,-0.01,-0.04,-3.54,0.18,-0.37
61786444.0,366199.379731,10977.0,1.0,-0.0,-0.04,-3.6,0.18,-0.24
61791208.0,366199.4245311,10978.0,1.0,-0.0,-0.04,-3.54,0.37,-0.37
61795988.0,366199.4769586,10979.0,1.0,-0.01,-0.04,-3.6,0.37,-0.55
61800776.0,366199.5246677,10980.0,1.0,-0.0,-0.04,-3.41,0.43,-0.24
61805560.0,366199.5763646,10981.0,1.0,-0.0,-0.04,-3.48,0.18,-0.43
61810340.0,366199.6249992,10982.0,1.0,-0.01,-0.04,-3.6,0.3,-0.37
61815116.0,366199.6745849,10983.0,1.0,-0.01,-0.04,-3.66,0.24,-0.24
61819896.0,366199.7692911,10984.0,1.0,-0.0,-0.04,-3.66,0.18,-0.24
61824680.0,366199.822362,10985.0,1.0,-0.01,-0.04,-3.35,0.06,-0.18
61829452.0,366199.8663533,10986.0,1.01,-0.01,-0.04,-3.66,0.3,-0.3
61834232.0,366199.9193588,10987.0,1.0,-0.01,-0.04,-3.6,0.24,-0.49
61839016.0,366199.96592,10988.0,1.0,-0.01,-0.05,-3.6,0.37,-0.37
61843800.0,366200.0154857,10989.0,1.0,-0.0,-0.04,-3.66,0.06,-0.3
61848560.0,366200.0646987,10990.0,1.0,-0.01,-0.04,-3.78,0.12,-0.24
61853344.0,366200.1127053,10991.0,1.0,-0.0,-0.05,-3.6,0.24,-0.3
61858112.0,366200.1612858,10992.0,1.0,-0.0,-0.04,-3.72,0.3,-0.18
61862884.0,366200.2086108,10993.0,1.0,-0.01,-0.04,-3.72,0.12,-0.49
61867668.0,366200.3040655,10994.0,1.0,-0.0,-0.04,-3.48,0.37,-0.3
61872444.0,366200.3061904,10995.0,1.0,-0.01,-0.04,-3.54,0.61,-0.24
68452496.0,366200.4479261,12373.0,1.0,-0.01,-0.04,-3.84,0.06,-0.3
68457260.0,366200.4960916,12374.0,1.0,-0.0,-0.04,-3.48,0.0,-0.43
68461992.0,366200.5474114,12375.0,1.0,-0.0,-0.04,-3.41,0.3,-0.37
68466772.0,366200.5917727,12376.0,1.0,-0.0,-0.04,-3.54,0.06,-0.43
68471548.0,366200.6857351,12377.0,1.0,-0.01,-0.04,-3.72,0.37,-0.43
68476340.0,366200.7018856,12378.0,1.0,-0.0,-0.05,-3.35,0.18,-0.43
68481128.0,366200.7810582,12379.0,1.0,-0.01,-0.04,-3.54,0.12,-0.55
68485912.0,366200.8281591,12380.0,1.0,-0.0,-0.04,-3.66,0.43,-0.43
68490692.0,366200.8796535,12381.0,1.0,-0.0,-0.04,-3.35,0.37,-0.24
68495472.0,366200.9268356,12382.0,1.0,-0.01,-0.05,-3.78,0.06,-0.43
68500236.0,366200.9767326,12383.0,1.0,-0.0,-0.04,-3.54,0.24,-0.06
68505004.0,366201.0249557,12384.0,1.01,-0.01,-0.04,-3.66,0.24,-0.43
68509800.0,366201.0734067,12385.0,1.0,-0.0,-0.04,-3.41,0.12,-0.3
68514564.0,366201.1681007,12386.0,1.0,-0.01,-0.04,-3.29,0.18,-0.49
68519344.0,366201.1701441,12387.0,1.0,-0.01,-0.04,-3.54,0.3,0.0
68524076.0,366201.2648453,12388.0,1.0,-0.0,-0.04,-3.6,0.12,-0.49
68528844.0,366201.3097847,12389.0,1.0,-0.01,-0.05,-3.54,0.43,-0.18
68533624.0,366201.3625727,12390.0,1.0,-0.0,-0.04,-3.66,0.0,-0.3
68538340.0,366201.4099072,12391.0,1.0,-0.01,-0.04,-3.41,0.12,-0.3
68543124.0,366201.4599075,12392.0,0.99,-0.01,-0.04,-3.84,0.37,-0.55
68547916.0,366201.5082441,12393.0,1.0,-0.0,-0.04,-3.29,-0.12,-0.3
68552700.0,366201.5558839,12394.0,1.0,-0.01,-0.04,-3.54,0.12,-0.49
68557484.0,366201.6038909,12395.0,1.0,-0.01,-0.04,-3.41,0.18,-0.24
68562264.0,366201.6518542,12396.0,1.0,-0.0,-0.04,-3.48,0.0,-0.37
68566992.0,366201.7453905,12397.0,1.0,-0.0,-0.04,-3.41,0.43,-0.37
68571776.0,366201.7889502,12398.0,1.0,-0.01,-0.04,-3.78,0.06,-0.49
68576560.0,366201.8411848,12399.0,1.0,-0.0,-0.04,-3.48,0.0,-0.3
68581272.0,366201.8864684,12400.0,1.0,-0.0,-0.03,-3.54,0.18,-0.49
68586044.0,366201.9395051,12401.0,1.0,-0.01,-0.04,-3.78,0.18,-0.06
68590832.0,366201.986124,12402.0,1.0,-0.01,-0.04,-3.6,0.18,-0.61
68595604.0,366202.0364797,12403.0,1.0,-0.01,-0.04,-3.54,0.0,-0.12
68600332.0,366202.0837728,12404.0,1.0,-0.0,-0.04,-3.41,0.37,-0.37
68605120.0,366202.132784,12405.0,1.0,-0.01,-0.04,-3.54,0.37,-0.3
68609892.0,366202.1814482,12406.0,1.0,-0.0,-0.05,-3.54,0.37,-0.3
68614676.0,366202.228867,12407.0,1.0,-0.01,-0.03,-3.48,0.12,-0.3
68619460.0,366202.2962936,12408.0,1.0,-0.0,-0.04,-3.66,0.0,-0.3
68624176.0,366202.3412546,12409.0,1.0,-0.0,-0.04,-3.41,0.0,-0.43
68628908.0,366202.4216106,12410.0,1.0,-0.0,-0.04,-3.35,0.06,-0.18
68633676.0,366202.4684288,12411.0,1.0,-0.0,-0.05,-3.48,0.24,-0.24
68638460.0,366202.5169992,12412.0,1.0,-0.01,-0.04,-3.6,0.12,-0.43
68643240.0,366202.5636822,12413.0,1.0,-0.0,-0.04,-3.54,0.3,0.0
68647956.0,366202.6131123,12414.0,1.0,-0.01,-0.04,-3.54,0.24,-0.43
68652732.0,366202.662063,12415.0,1.0,-0.0,-0.04,-3.6,0.18,-0.3
68657492.0,366202.7099855,12416.0,1.0,-0.01,-0.04,-3.54,0.12,-0.3
68662284.0,366202.8041246,12417.0,1.0,-0.01,-0.05,-3.66,0.55,-0.3
68667060.0,366202.8062002,12418.0,1.0,-0.01,-0.05,-3.29,0.18,-0.37
68671844.0,366202.8993485,12419.0,1.01,-0.01,-0.04,-3.54,-0.06,-0.49
68676632.0,366202.9441747,12420.0,1.0,-0.0,-0.04,-3.72,0.43,-0.43
68681416.0,366202.9959308,12421.0,1.0,-0.01,-0.04,-3.48,0.12,0.06
68686180.0,366203.0438516,12422.0,1.0,-0.01,-0.04,-3.54,0.67,-0.3
68690968.0,366203.0924191,12423.0,1.0,-0.0,-0.05,-3.54,0.18,-0.24
68695736.0,366203.1863001,12424.0,1.0,-0.0,-0.04,-3.29,0.18,-0.37
68700508.0,366203.1883406,12425.0,1.0,-0.0,-0.04,-3.41,0.24,-0.18
68705288.0,366203.2829574,12426.0,1.0,-0.01,-0.05,-3.29,0.06,-0.43
68710064.0,366203.3296594,12427.0,1.0,-0.01,-0.05,-3.66,0.61,-0.06
68714844.0,366203.3783091,12428.0,1.01,-0.0,-0.04,-3.48,0.12,-0.43
68719636.0,366203.4268371,12429.0,1.0,-0.0,-0.05,-3.41,0.24,-0.49
68724412.0,366203.4742187,12430.0,1.0,-0.0,-0.04,-3.54,0.18,-0.3
68729188.0,366203.5680408,12431.0,1.0,-0.0,-0.04,-3.48,0.12,-0.24
68733976.0,366203.6124611,12432.0,1.0,-0.01,-0.04,-3.6,0.18,-0.3
68738752.0,366203.6642017,12433.0,1.0,-0.0,-0.04,-3.6,0.12,-0.3
68743516.0,366203.7109274,12434.0,1.01,-0.01,-0.04,-3.6,0.43,-0.3
68748304.0,366203.7600377,12435.0,1.0,-0.01,-0.04,-3.54,0.12,-0.37
68753088.0,366203.8072447,12436.0,1.01,-0.01,-0.04,-3.54,0.3,-0.24
68757876.0,366203.8567175,12437.0,1.0,-0.01,-0.04,-3.78,0.18,-0.18
68762664.0,366203.905754,12438.0,1.0,-0.0,-0.04,-3.17,0.37,-0.06
68767432.0,366203.9535042,12439.0,1.0,-0.0,-0.04,-3.17,0.18,-0.24
68772204.0,366204.0467381,12440.0,1.0,-0.01,-0.04,-3.41,0.18,-0.43
68776996.0,366204.0938901,12441.0,1.0,-0.0,-0.04,-3.6,0.18,-0.12
68781748.0,366204.1434463,12442.0,1.0,-0.0,-0.04,-3.48,0.37,-0.37
68786532.0,366204.1904067,12443.0,1.0,-0.0,-0.04,-3.6,0.43,-0.12
68791312.0,366204.2398703,12444.0,1.0,-0.0,-0.04,-3.35,0.43,-0.24
68796084.0,366204.2869667,12445.0,1.0,-0.01,-0.04,-3.48,0.37,-0.61
68800880.0,366204.336546,12446.0,1.01,-0.01,-0.04,-3.6,0.18,-0.3
68805668.0,366204.3848268,12447.0,1.0,-0.0,-0.04,-3.66,0.18,-0.3
68810424.0,366204.4325306,12448.0,1.0,-0.0,-0.05,-3.23,0.12,-0.43
68815208.0,366204.5267197,12449.0,1.0,-0.01,-0.05,-3.54,0.06,-0.43
68819996.0,366204.5434977,12450.0,1.0,-0.01,-0.04,-3.78,0.24,-0.37
68824776.0,366204.6230767,12451.0,1.0,-0.01,-0.04,-3.35,0.37,-0.12
68829560.0,366204.6671968,12452.0,1.0,-0.01,-0.04,-3.66,0.24,-0.43
68834348.0,366204.7197268,12453.0,1.0,-0.01,-0.04,-3.35,0.3,0.12
68839112.0,366204.7668071,12454.0,1.0,-0.01,-0.05,-3.54,0.24,-0.18
68843896.0,366204.8159954,12455.0,1.0,-0.01,-0.04,-3.29,0.24,-0.12
68848684.0,366204.8649804,12456.0,1.0,-0.0,-0.03,-3.54,0.49,-0.73
68853452.0,366204.9131454,12457.0,1.0,-0.0,-0.04,-3.72,0.3,-0.3
68858216.0,366205.0072408,12458.0,1.0,-0.0,-0.04,-3.66,0.24,-0.18
68862992.0,366205.0241891,12459.0,1.0,-0.01,-0.04,-3.78,0.24,-0.3
68867772.0,366205.1037934,12460.0,1.0,-0.0,-0.04,-3.72,0.06,-0.43
68872544.0,366205.1482819,12461.0,1.0,-0.0,-0.04,-3.66,0.18,-0.18
68877324.0,366205.2008705,12462.0,1.0,-0.0,-0.04,-3.78,0.18,-0.12
68882100.0,366205.247776,12463.0,1.0,-0.01,-0.04,-3.41,0.24,-0.24
68886880.0,366205.2977717,12464.0,1.0,-0.01,-0.05,-3.72,0.37,-0.37
68891676.0,366205.3457012,12465.0,1.0,-0.0,-0.04,-3.6,0.0,-0.37
68896400.0,366205.3951189,12466.0,1.0,-0.0,-0.03,-3.41,0.06,-0.43
68901168.0,366205.4904503,12467.0,1.0,-0.01,-0.04,-3.54,0.49,-0.37
68905960.0,366205.5959214,12468.0,1.0,-0.01,-0.04,-3.54,0.24,-0.3
68910740.0,366205.6662182,12469.0,1.0,-0.01,-0.04,-3.48,0.37,-0.18
68915532.0,366205.7126682,12470.0,1.0,-0.01,-0.05,-3.66,0.18,-0.06
68920312.0,366205.7923023,12471.0,1.0,-0.0,-0.05,-3.35,0.0,-0.3
68925032.0,366205.8363147,12472.0,1.0,-0.01,-0.04,-3.35,0.3,-0.3
68929820.0,366205.8897365,12473.0,1.0,-0.0,-0.04,-3.6,0.24,-0.18
68934596.0,366205.9385562,12474.0,1.0,-0.01,-0.04,-3.66,0.06,-0.37
68939376.0,366205.9878496,12475.0,1.0,-0.01,-0.04,-3.6,0.18,-0.43
68944164.0,366206.0347977,12476.0,1.0,-0.01,-0.04,-3.41,-0.06,0.0
68948884.0,366206.0843308,12477.0,1.0,-0.01,-0.04,-3.17,0.18,-0.12
68953668.0,366206.1331139,12478.0,1.0,-0.01,-0.04,-3.35,-0.3,-0.24
68958468.0,366206.181124,12479.0,1.0,-0.0,-0.05,-3.35,0.18,-0.18
68963240.0,366206.2766699,12480.0,1.01,-0.01,-0.05,-3.41,-0.06,-0.18
68968028.0,366206.3209976,12481.0,1.0,-0.01,-0.04,-3.48,0.18,0.0
68972764.0,366206.3741772,12482.0,1.0,-0.01,-0.04,-3.48,-0.06,-0.55
68977544.0,366206.4210514,12483.0,1.0,-0.01,-0.05,-3.6,0.3,-0.67
68982328.0,366206.4703077,12484.0,1.0,-0.01,-0.04,-3.66,0.24,-0.37
68987116.0,366206.5205014,12485.0,1.0,-0.0,-0.04,-3.66,0.12,-0.3
68991888.0,366206.5660975,12486.0,1.0,-0.0,-0.04,-3.66,0.24,-0.49
68996660.0,366206.6604531,12487.0,1.0,-0.01,-0.04,-3.48,0.3,-0.12
69001448.0,366206.7046951,12488.0,1.0,-0.01,-0.04,-3.54,0.37,-0.55
69006232.0,366206.7571695,12489.0,1.0,-0.01,-0.04,-3.72,0.43,-0.12
69011012.0,366206.8046214,12490.0,1.0,-0.0,-0.05,-3.54,0.12,-0.49
69015800.0,366206.8545744,12491.0,1.0,-0.01,-0.04,-3.6,0.24,-0.43
69020572.0,366206.9027581,12492.0,1.0,-0.01,-0.04,-3.48,0.12,-0.18
69025356.0,366206.9509563,12493.0,1.0,-0.01,-0.04,-3.6,0.12,-0.24
69030144.0,366207.0450508,12494.0,1.0,-0.01,-0.04,-3.6,0.37,-0.37
69034924.0,366207.0470437,12495.0,1.0,-0.01,-0.04,-3.48,0.24,-0.55
69039708.0,366207.1404289,12496.0,1.0,-0.01,-0.04,-3.48,0.18,-0.12
69044496.0,366207.1845718,12497.0,1.0,-0.01,-0.04,-3.66,0.24,-0.37
69049276.0,366207.2378199,12498.0,1.01,-0.01,-0.04,-3.54,0.24,-0.24
69054068.0,366207.2867581,12499.0,1.0,-0.0,-0.04,-3.23,0.24,-0.37
69058852.0,366207.3359465,12500.0,1.0,-0.0,-0.04,-3.54,0.37,-0.24
69063632.0,366207.4304878,12501.0,1.0,-0.0,-0.05,-3.41,0.06,-0.24
69068404.0,366207.4469453,12502.0,1.0,-0.0,-0.04,-3.54,0.0,-0.37
69073132.0,366207.5264967,12503.0,1.0,-0.0,-0.04,-3.41,-0.06,-0.18
69077900.0,366207.5707067,12504.0,1.0,-0.01,-0.04,-3.6,0.37,-0.24
69082684.0,366207.6241364,12505.0,1.0,-0.0,-0.04,-3.41,0.12,-0.24
75663852.0,366207.7250659,13883.0,1.0,-0.01,-0.04,-3.66,0.24,-0.3
75668640.0,366207.7742184,13884.0,1.0,-0.01,-0.04,-3.66,0.3,-0.37
75673412.0,366207.8221772,13885.0,1.0,-0.0,-0.04,-3.78,0.12,-0.3
75678184.0,366207.8706173,13886.0,1.0,-0.01,-0.04,-3.29,0.24,-0.06
75682960.0,366207.9645382,13887.0,1.0,-0.01,-0.04,-3.54,0.24,0.0
75687688.0,366207.981312,13888.0,1.0,-0.01,-0.04,-3.54,-0.18,-0.24
75692480.0,366208.0606763,13889.0,1.0,-0.01,-0.04,-3.72,0.24,-0.3
75697268.0,366208.1045838,13890.0,1.0,-0.01,-0.04,-3.48,0.24,-0.24
75702048.0,366208.1586099,13891.0,1.0,-0.01,-0.04,-3.41,0.18,-0.3
75706832.0,366208.2066617,13892.0,1.0,-0.0,-0.05,-3.6,0.37,-0.37
75711616.0,366208.255093,13893.0,1.0,-0.01,-0.05,-3.41,0.0,-0.43
75716344.0,366208.3054401,13894.0,1.0,-0.01,-0.04,-3.41,0.24,-0.49
75721128.0,366208.3520655,13895.0,1.0,-0.01,-0.04,-3.66,0.12,-0.49
75725920.0,366208.4463744,13896.0,1.0,-0.01,-0.04,-3.6,0.06,-0.3
75730680.0,366208.4900367,13897.0,1.0,-0.01,-0.04,-3.72,0.12,-0.43
75735476.0,366208.5419884,13898.0,1.0,-0.0,-0.04,-3.6,0.06,-0.24
75740244.0,366208.5866038,13899.0,1.0,-0.01,-0.04,-3.54,0.12,-0.3
75745024.0,366208.6389831,13900.0,1.0,-0.01,-0.04,-3.6,0.24,-0.37
75749804.0,366208.6572052,13901.0,1.0,-0.01,-0.04,-3.6,0.0,-0.55
75754544.0,366208.7388977,13902.0,1.0,-0.01,-0.04,-3.6,0.3,-0.49
75759328.0,366208.7839917,13903.0,1.0,-0.0,-0.05,-3.72,0.06,-0.43
75764104.0,366208.8367777,13904.0,1.0,-0.0,-0.05,-3.54,-0.06,-0.18
75768884.0,366208.8827538,13905.0,1.0,-0.0,-0.04,-3.41,0.3,-0.37
75773656.0,366208.9371548,13906.0,1.0,-0.0,-0.04,-3.72,0.3,-0.18
75778428.0,366208.9855183,13907.0,1.0,-0.0,-0.04,-3.48,0.3,-0.24
75783196.0,366209.0354854,13908.0,1.0,-0.0,-0.05,-3.72,0.12,-0.37
75787976.0,366209.087763,13909.0,1.01,-0.01,-0.05,-3.41,0.3,-0.43
75792768.0,366209.1350729,13910.0,1.01,-0.01,-0.04,-3.35,0.12,-0.24
75797568.0,366209.184424,13911.0,1.0,-0.01,-0.04,-3.72,0.43,-0.3
75802352.0,366209.2326647,13912.0,1.0,-0.0,-0.04,-3.66,0.37,-0.24
75807132.0,366209.2805061,13913.0,1.01,-0.0,-0.04,-3.66,0.18,-0.37
75811924.0,366209.3747406,13914.0,1.0,-0.01,-0.04,-3.6,0.12,-0.37
75816704.0,366209.4190447,13915.0,1.0,-0.0,-0.04,-3.54,0.24,-0.3
75821488.0,366209.4716121,13916.0,1.0,-0.0,-0.04,-3.66,0.49,-0.55
75826272.0,366209.518237,13917.0,1.0,-0.01,-0.04,-3.54,0.0,-0.55
75831012.0,366209.5675281,13918.0,1.0,-0.01,-0.04,-3.78,0.12,-0.3
75835796.0,366209.6160659,13919.0,1.0,-0.0,-0.05,-3.72,-0.06,-0.18
75840584.0,366209.6633173,13920.0,1.0,-0.01,-0.04,-3.48,0.0,-0.55
75845312.0,366209.714975,13921.0,1.0,-0.01,-0.04,-3.66,0.3,-0.43
75850092.0,366209.7599558,13922.0,1.0,-0.0,-0.04,-3.9,0.3,-0.43
75854860.0,366209.8087856,13923.0,1.0,-0.0,-0.04,-3.35,0.06,-0.55
75859628.0,366209.8727143,13924.0,1.0,-0.0,-0.04,-3.35,0.06,-0.37
75864400.0,366209.9534616,13925.0,1.0,-0.01,-0.04,-3.66,0.43,-0.24
75869180.0,366209.9979299,13926.0,1.0,-0.01,-0.04,-3.6,0.43,-0.49
75873964.0,366210.0502835,13927.0,1.0,-0.01,-0.04,-3.72,0.06,-0.37
75878736.0,366210.098584,13928.0,1.0,-0.01,-0.04,-3.41,0.0,-0.12
75883468.0,366210.1465095,13929.0,1.0,-0.0,-0.04,-3.48,0.18,-0.06
75888232.0,366210.2411468,13930.0,1.0,-0.01,-0.04,-3.41,0.37,-0.37
75893032.0,366210.2433407,13931.0,1.0,-0.01,-0.04,-3.6,0.12,-0.06
75897804.0,366210.3374995,13932.0,1.0,-0.0,-0.04,-3.54,0.3,-0.43
75902576.0,366210.3845481,13933.0,1.0,-0.01,-0.04,-3.41,0.3,-0.37
75907376.0,366210.4334273,13934.0,1.0,-0.0,-0.04,-3.6,0.24,-0.37
75912148.0,366210.4803392,13935.0,1.0,-0.01,-0.04,-3.54,0.18,-0.24
75916928.0,366210.5294019,13936.0,1.0,-0.01,-0.05,-3.54,0.55,-0.37
75921724.0,366210.5785172,13937.0,1.0,-0.01,-0.04,-3.48,0.37,-0.12
75926520.0,366210.6263314,13938.0,1.0,-0.0,-0.05,-3.78,0.06,-0.37
75931292.0,366210.6765645,13939.0,1.0,-0.01,-0.05,-3.35,0.24,-0.55
75936080.0,366210.7226043,13940.0,1.0,-0.0,-0.05,-3.48,0.0,-0.37
75940812.0,366210.8165173,13941.0,1.01,-0.0,-0.04,-3.6,-0.06,-0.3
75945584.0,366210.8608574,13942.0,1.0,-0.01,-0.04,-3.54,0.18,-0.18
75950372.0,366210.9125837,13943.0,1.0,-0.01,-0.05,-3.48,0.3,-0.18
75955156.0,366210.959725,13944.0,1.0,-0.01,-0.04,-3.41,0.3,-0.37
75959936.0,366211.0085404,13945.0,1.0,-0.01,-0.04,-3.78,0.24,-0.49
75964720.0,366211.056075,13946.0,1.0,-0.01,-0.03,-3.6,0.0,-0.37
75969448.0,366211.1058573,13947.0,1.0,-0.0,-0.04,-3.6,0.0,-0.24
75974164.0,366211.2000385,13948.0,1.0,-0.0,-0.04,-3.48,0.0,-0.18
75978888.0,366211.2445604,13949.0,1.0,-0.0,-0.05,-3.48,0.3,-0.18
75983664.0,366211.2973468,13950.0,1.01,-0.01,-0.04,-3.48,0.18,-0.18
75988456.0,366211.3416734,13951.0,1.0,-0.01,-0.04,-3.72,0.3,-0.3
75993244.0,366211.3938113,13952.0,1.0,-0.01,-0.04,-3.54,0.3,-0.43
75998028.0,366211.4412753,13953.0,1.0,-0.0,-0.04,-3.6,0.18,-0.06
76002792.0,366211.4904907,13954.0,1.0,-0.01,-0.04,-3.84,0.3,-0.37
76007580.0,366211.5391447,13955.0,1.0,-0.01,-0.04,-3.54,0.24,-0.61
76012360.0,366211.5874274,13956.0,1.0,-0.0,-0.04,-3.6,0.18,-0.43
76017136.0,366211.6820739,13957.0,1.0,-0.0,-0.04,-3.78,0.06,-0.24
76021900.0,366211.7261412,13958.0,1.0,-0.01,-0.04,-3.41,0.0,-0.49
76026628.0,366211.777985,13959.0,1.0,-0.0,-0.05,-3.54,0.06,-0.12
76031400.0,366211.8256587,13960.0,1.0,-0.01,-0.04,-3.6,0.24,-0.43
76036188.0,366211.8749316,13961.0,1.0,-0.01,-0.05,-3.6,0.24,-0.24
76040964.0,366211.924554,13962.0,1.0,-0.0,-0.04,-3.41,0.06,-0.18
76045724.0,366211.973214,13963.0,1.0,-0.01,-0.04,-3.6,0.55,-0.43
76050516.0,366212.0263055,13964.0,1.0,-0.01,-0.04,-3.6,-0.12,-0.37
76055296.0,366212.070161,13965.0,1.01,-0.0,-0.04,-3.48,0.18,-0.43
76060080.0,366212.1635408,13966.0,1.0,-0.01,-0.04,-3.41,0.06,-0.37
76064868.0,366212.2109611,13967.0,1.0,-0.01,-0.05,-3.35,0.49,-0.43
76069652.0,366212.2603163,13968.0,1.0,-0.0,-0.04,-3.48,0.49,-0.37
76074436.0,366212.3091891,13969.0,1.0,-0.0,-0.05,-3.48,0.3,-0.3
76079204.0,366212.356881,13970.0,1.0,-0.0,-0.04,-3.54,0.24,-0.37
76083976.0,366212.4079996,13971.0,1.0,-0.01,-0.04,-3.66,0.24,-0.43
76088760.0,366212.4544307,13972.0,1.0,-0.01,-0.05,-3.29,0.43,-0.55
76093556.0,366212.5496284,13973.0,1.0,-0.01,-0.04,-3.6,0.55,-0.3
76098328.0,366212.5939439,13974.0,1.0,-0.0,-0.04,-3.6,0.37,-0.12
76103100.0,366212.646248,13975.0,1.0,-0.01,-0.04,-3.41,0.3,-0.55
76107884.0,366212.6931335,13976.0,1.0,-0.01,-0.04,-3.66,0.0,-0.24
76112612.0,366212.7424426,13977.0,1.0,-0.01,-0.04,-3.41,0.0,-0.24
76117340.0,366212.7902643,13978.0,1.0,-0.01,-0.04,-3.41,0.24,-0.37
76122140.0,366212.8397087,13979.0,1.0,-0.01,-0.04,-3.54,0.49,-0.18
76126920.0,366212.8912794,13980.0,1.0,-0.01,-0.04,-3.54,0.43,-0.24
76131704.0,366212.9376986,13981.0,1.0,-0.0,-0.04,-3.66,-0.18,-0.24
76136492.0,366213.0316245,13982.0,1.0,-0.01,-0.04,-3.41,0.06,-0.3
76141260.0,366213.0376386,13983.0,1.0,-0.01,-0.04,-3.78,0.24,-0.12
76146052.0,366213.0860478,13984.0,1.01,-0.0,-0.04,-3.66,0.18,-0.43
76150840.0,366213.1378086,13985.0,1.0,-0.0,-0.04,-3.54,0.49,-0.24
76155600.0,366213.1823223,13986.0,1.0,-0.0,-0.04,-3.41,0.49,-0.12
76160384.0,366213.2358099,13987.0,1.0,-0.01,-0.04,-3.6,0.37,-0.12
76165172.0,366213.2833518,13988.0,1.0,-0.01,-0.04,-3.41,0.12,-0.18
76169956.0,366213.3324351,13989.0,1.0,-0.01,-0.04,-3.48,0.06,-0.43
76174740.0,366213.3807862,13990.0,1.0,-0.01,-0.04,-3.35,0.12,-0.24
76179528.0,366213.4280867,13991.0,1.0,-0.01,-0.05,-3.72,0.0,-0.24
76184244.0,366213.5230423,13992.0,1.0,-0.01,-0.04,-3.48,0.0,-0.37
76188980.0,366213.5396173,13993.0,1.0,-0.01,-0.04,-3.48,0.43,-0.49
76193768.0,366213.619117,13994.0,1.0,-0.01,-0.03,-3.6,0.18,-0.24
76198552.0,366213.6630221,13995.0,1.0,-0.01,-0.04,-3.54,0.3,-0.18
76203332.0,366213.7161622,13996.0,1.0,-0.01,-0.04,-3.72,0.0,-0.49
76208060.0,366213.7634189,13997.0,1.0,-0.01,-0.04,-3.78,0.43,-0.43
76212844.0,366213.8131934,13998.0,1.0,-0.01,-0.04,-3.54,0.24,-0.37
76217632.0,366213.8604929,13999.0,1.0,-0.01,-0.04,-3.72,0.18,-0.06
76222416.0,366213.9098816,14000.0,1.0,-0.0,-0.04,-3.6,0.06,-0.3
76227168.0,366213.959531,14001.0,1.0,-0.0,-0.04,-3.54,0.18,-0.3
76231948.0,366214.0075265,14002.0,1.0,-0.01,-0.04,-3.41,0.12,-0.12
76236728.0,366214.1020277,14003.0,1.0,-0.0,-0.04,-3.41,0.3,0.0
76241448.0,366214.1188376,14004.0,1.0,-0.0,-0.05,-3.6,0.37,-0.37
76246236.0,366214.1983864,14005.0,1.0,-0.0,-0.04,-3.78,0.3,-0.49
76250996.0,366214.2428417,14006.0,1.0,-0.0,-0.04,-3.35,0.18,-0.3
76255768.0,366214.2949982,14007.0,1.0,-0.01,-0.04,-3.54,0.18,-0.3
76260556.0,366214.3425356,14008.0,1.0,-0.01,-0.04,-3.23,-0.12,-0.37
76265340.0,366214.3927189,14009.0,1.01,-0.01,-0.04,-3.35,0.49,-0.43
76270132.0,366214.4416233,14010.0,1.0,-0.0,-0.04,-3.35,0.12,-0.3
76274912.0,366214.4927277,14011.0,1.0,-0.01,-0.04,-3.66,0.18,-0.18
76279696.0,366214.5434105,14012.0,1.0,-0.0,-0.04,-3.66,0.06,-0.3
76284460.0,366214.5922421,14013.0,1.0,-0.01,-0.04,-3.72,0.3,-0.24
76289248.0,366214.6402807,14014.0,1.01,-0.0,-0.04,-3.6,0.18,-0.3
76294008.0,366214.6893264,14015.0,1.0,-0.01,-0.04,-3.54,0.18,-0.43
76298792.0,366214.7522412,14016.0,1.0,-0.01,-0.04,-3.48,0.24,-0.43
76303580.0,366214.8303098,14017.0,1.0,-0.01,-0.05,-3.6,0.24,-0.49
76308352.0,366214.8743474,14018.0,1.0,-0.01,-0.04,-3.54,0.24,-0.3
82884620.0,366214.9738125,15395.0,1.0,-0.01,-0.05,-3.72,0.3,-0.3
82889396.0,366215.0231413,15396.0,1.0,-0.0,-0.05,-3.54,0.12,-0.3
82894172.0,366215.0703041,15397.0,1.0,-0.0,-0.04,-3.41,0.06,-0.49
82898944.0,366215.120131,15398.0,1.0,-0.01,-0.04,-3.66,0.12,-0.61
82903732.0,366215.1673495,15399.0,1.0,-0.01,-0.04,-3.54,0.37,-0.49
82908516.0,366215.2172135,15400.0,1.0,0.0,-0.04,-3.78,0.06,-0.43
82913284.0,366215.2658631,15401.0,1.0,-0.01,-0.04,-3.41,0.49,-0.37
82918060.0,366215.3140584,15402.0,1.01,-0.01,-0.04,-3.48,0.49,-0.49
82922852.0,366215.4078816,15403.0,1.0,-0.01,-0.04,-3.66,0.12,-0.12
82927640.0,366215.4521677,15404.0,1.0,-0.01,-0.04,-3.72,0.3,-0.43
82932416.0,366215.5055318,15405.0,1.0,-0.0,-0.04,-3.66,0.24,-0.3
82937188.0,366215.5525517,15406.0,1.0,-0.0,-0.04,-3.29,0.18,-0.3
82941960.0,366215.6023968,15407.0,1.0,-0.01,-0.04,-3.6,0.06,-0.18
82946724.0,366215.6502431,15408.0,1.0,-0.0,-0.04,-3.41,0.18,-0.24
82951500.0,366215.6996618,15409.0,1.0,-0.01,-0.04,-3.41,0.18,-0.24
82956280.0,366215.7484712,15410.0,1.0,-0.0,-0.05,-3.54,0.37,-0.61
82961072.0,366215.797175,15411.0,1.0,-0.0,-0.04,-3.41,0.3,-0.18
82965848.0,366215.8908129,15412.0,1.0,-0.01,-0.04,-3.78,0.12,-0.3
82970632.0,366215.9347245,15413.0,1.0,-0.01,-0.04,-3.78,0.0,-0.18
82975364.0,366215.9878607,15414.0,1.0,-0.0,-0.05,-3.66,0.06,-0.12
82980144.0,366216.0839029,15415.0,1.0,-0.0,-0.04,-3.54,0.43,-0.18
82984928.0,366216.1282382,15416.0,1.0,-0.01,-0.05,-3.66,0.12,-0.37
82989720.0,366216.1804754,15417.0,1.0,-0.0,-0.04,-3.41,0.37,-0.43
82994508.0,366216.2273307,15418.0,1.0,-0.01,-0.04,-3.48,0.06,-0.55
82999292.0,366216.276346,15419.0,1.0,-0.01,-0.04,-3.41,0.43,-0.18
83004076.0,366216.3276587,15420.0,1.0,-0.01,-0.05,-3.6,-0.12,-0.24
83008860.0,366216.3732529,15421.0,1.0,-0.01,-0.05,-3.48,0.3,-0.12
83013648.0,366216.4674593,15422.0,1.0,-0.01,-0.04,-3.48,0.37,-0.67
83018440.0,366216.5119511,15423.0,1.0,-0.01,-0.04,-3.54,0.3,-0.24
83023220.0,366216.5640276,15424.0,1.0,-0.01,-0.04,-3.48,0.24,-0.43
83028012.0,366216.6112689,15425.0,1.0,-0.0,-0.04,-3.54,0.12,-0.55
83032788.0,366216.6603031,15426.0,1.0,-0.01,-0.04,-3.54,0.12,-0.3
83037568.0,366216.7080417,15427.0,1.0,-0.0,-0.03,-3.54,0.12,-0.12
83042352.0,366216.7577545,15428.0,1.0,-0.01,-0.05,-3.9,0.06,-0.43
83047116.0,366216.8061082,15429.0,1.0,-0.0,-0.04,-3.54,0.43,-0.3
83051888.0,366216.8540415,15430.0,1.0,-0.0,-0.04,-3.54,0.12,0.0
83056608.0,366216.9489141,15431.0,1.0,-0.01,-0.04,-3.41,-0.06,-0.49
83061400.0,366216.9656487,15432.0,1.0,-0.01,-0.04,-3.54,0.3,-0.24
83066188.0,366217.0441863,15433.0,1.0,-0.01,-0.04,-3.84,0.12,-0.12
83070968.0,366217.0908699,15434.0,1.0,-0.01,-0.04,-3.66,0.43,-0.55
83075760.0,366217.1398836,15435.0,1.0,-0.0,-0.04,-3.48,0.37,-0.37
83080552.0,366217.18713,15436.0,1.0,-0.01,-0.04,-3.41,-0.06,-0.43
83085344.0,366217.2371198,15437.0,1.0,-0.01,-0.05,-3.78,0.24,-0.3
83090120.0,366217.2862698,15438.0,1.0,-0.01,-0.04,-3.72,0.12,-0.3
83094900.0,366217.333995,15439.0,1.0,-0.0,-0.04,-3.6,0.0,-0.43
83099620.0,366217.4290719,15440.0,1.0,-0.01,-0.04,-3.66,0.37,-0.3
83104404.0,366217.4739955,15441.0,1.0,-0.01,-0.05,-3.6,0.24,-0.49
83109192.0,366217.5260127,15442.0,1.0,-0.01,-0.04,-3.72,0.3,-0.37
83113972.0,366217.5738668,15443.0,1.0,-0.0,-0.04,-3.78,0.18,0.24
83118740.0,366217.623005,15444.0,1.0,-0.0,-0.03,-3.41,0.0,-0.18
83123476.0,366217.6721735,15445.0,1.0,-0.01,-0.04,-3.72,0.37,-0.24
83128256.0,366217.7204382,15446.0,1.0,-0.01,-0.04,-3.66,0.24,-0.24
83133048.0,366217.8153672,15447.0,1.0,-0.01,-0.04,-3.48,0.37,-0.06
83137836.0,366217.8214079,15448.0,1.01,-0.0,-0.04,-3.48,0.18,-0.37
83142620.0,366217.8727383,15449.0,1.0,-0.01,-0.04,-3.54,0.18,-0.3
83147400.0,366217.9228234,15450.0,1.0,-0.01,-0.04,-3.54,0.37,-0.18
83152200.0,366217.9725734,15451.0,1.0,-0.0,-0.04,-3.6,-0.12,-0.37
83156984.0,366218.0211148,15452.0,1.0,-0.0,-0.04,-3.41,0.12,-0.37
83161764.0,366218.115459,15453.0,1.0,-0.0,-0.04,-3.96,0.18,-0.49
83166540.0,366218.1600581,15454.0,1.0,-0.01,-0.04,-3.72,0.24,-0.18
83171336.0,366218.2118619,15455.0,1.0,-0.0,-0.05,-3.6,0.3,-0.24
83176104.0,366218.2591492,15456.0,1.0,-0.01,-0.04,-3.48,0.3,-0.12
83180888.0,366218.3083777,15457.0,1.0,-0.01,-0.05,-3.48,0.24,-0.18
83185676.0,366218.3565294,15458.0,1.0,-0.01,-0.05,-3.54,0.3,-0.3
83190452.0,366218.4058439,15459.0,1.0,-0.01,-0.04,-3.29,0.43,-0.24
83195232.0,366218.5014354,15460.0,1.0,-0.01,-0.04,-3.54,0.12,-0.24
83200020.0,366218.5459915,15461.0,1.0,-0.01,-0.04,-3.54,0.18,-0.24
83204796.0,366218.5986719,15462.0,1.0,-0.01,-0.04,-3.41,0.3,-0.3
83209580.0,366218.6470371,15463.0,1.0,-0.0,-0.04,-3.66,0.24,-0.49
83214364.0,366218.6950292,15464.0,1.0,-0.0,-0.04,-3.66,0.0,-0.3
83219080.0,366218.7890462,15465.0,1.0,-0.0,-0.04,-3.6,0.12,-0.3
83223848.0,366218.8337197,15466.0,1.0,-0.0,-0.04,-3.54,0.12,-0.06
83228608.0,366218.8870842,15467.0,1.0,-0.0,-0.04,-3.48,0.24,0.06
83233368.0,366218.9310484,15468.0,1.0,-0.0,-0.04,-3.66,0.0,-0.3
83238084.0,366218.9842473,15469.0,1.0,-0.01,-0.04,-3.66,0.18,-0.49
83242852.0,366219.031616,15470.0,1.0,-0.01,-0.05,-3.48,0.0,-0.49
83247584.0,366219.0814731,15471.0,1.0,-0.0,-0.05,-3.54,0.18,-0.24
83252364.0,366219.1341403,15472.0,1.0,-0.01,-0.04,-3.6,0.18,-0.24
83257132.0,366219.1810166,15473.0,1.0,0.0,-0.04,-3.6,0.18,-0.18
83261880.0,366219.2305656,15474.0,1.0,-0.01,-0.04,-3.6,0.18,-0.18
83266668.0,366219.2774709,15475.0,1.0,-0.0,-0.05,-3.48,0.37,-0.37
83271440.0,366219.3272499,15476.0,1.0,-0.01,-0.04,-3.6,0.12,-0.24
83276224.0,366219.3758802,15477.0,1.0,-0.0,-0.04,-3.29,0.3,-0.3
83280992.0,366219.42383,15478.0,1.0,-0.0,-0.04,-3.6,0.37,-0.55
83285752.0,366219.5185904,15479.0,1.0,-0.0,-0.04,-3.54,0.37,-0.37
83290540.0,366219.5625936,15480.0,1.0,-0.0,-0.04,-3.54,0.24,-0.61
83295324.0,366219.6150186,15481.0,1.0,-0.01,-0.04,-3.72,0.49,-0.55
83300108.0,366219.6618954,15482.0,1.0,-0.0,-0.05,-3.72,0.55,-0.18
83304888.0,366219.7108716,15483.0,1.0,-0.01,-0.05,-3.54,0.18,-0.24
83309680.0,366219.7582505,15484.0,1.0,-0.01,-0.04,-3.6,0.18,-0.37
83314452.0,366219.80751,15485.0,1.0,-0.01,-0.04,-3.9,0.37,-0.37
83319236.0,366219.8559976,15486.0,1.0,-0.0,-0.04,-3.6,0.12,-0.61
83324012.0,366219.9193697,15487.0,1.0,-0.01,-0.05,-3.66,0.3,-0.24
83328784.0,366219.9994509,15488.0,1.0,-0.01,-0.04,-3.6,0.06,-0.37
83333556.0,366220.0158842,15489.0,1.01,-0.0,-0.04,-3.48,0.06,-0.3
83338336.0,366220.0955074,15490.0,1.0,-0.01,-0.04,-3.35,0.3,-0.24
83343116.0,366220.1428784,15491.0,1.0,-0.01,-0.04,-3.48,0.12,-0.37
83347912.0,366220.1924037,15492.0,1.0,-0.01,-0.05,-3.6,0.18,-0.18
83352700.0,366220.2408802,15493.0,1.0,-0.01,-0.04,-3.66,0.06,-0.12
83357484.0,366220.2902182,15494.0,1.0,-0.01,-0.04,-3.48,0.24,-0.24
83362264.0,366220.3845303,15495.0,1.0,-0.01,-0.04,-3.84,0.3,-0.43
83367052.0,366220.4321289,15496.0,1.0,-0.01,-0.04,-3.54,0.12,-0.24
83371832.0,366220.4819213,15497.0,1.0,-0.0,-0.04,-3.48,0.37,-0.61
83376616.0,366220.5294901,15498.0,1.0,-0.01,-0.04,-3.72,0.24,-0.24
83381404.0,366220.5782939,15499.0,1.0,-0.01,-0.05,-3.72,0.06,-0.3
83386176.0,366220.6731127,15500.0,1.0,-0.01,-0.04,-3.84,0.3,-0.49
83390960.0,366220.6751341,15501.0,1.0,-0.0,-0.04,-3.41,0.12,-0.43
83395736.0,366220.7706487,15502.0,1.0,-0.01,-0.05,-3.6,0.0,-0.06
83400456.0,366220.815312,15503.0,1.0,-0.01,-0.04,-3.6,0.37,-0.37
83405240.0,366220.8679879,15504.0,1.0,-0.0,-0.04,-3.48,0.0,-0.3
83409964.0,366220.9125944,15505.0,1.0,-0.01,-0.05,-3.54,0.3,-0.37
83414740.0,366220.9655157,15506.0,1.0,-0.01,-0.05,-3.6,0.12,-0.18
83419520.0,366221.0123494,15507.0,1.0,-0.01,-0.04,-3.48,0.18,-0.3
83424308.0,366221.0616443,15508.0,1.0,-0.0,-0.04,-3.66,-0.06,-0.37
83429084.0,366221.1096519,15509.0,1.0,-0.0,-0.04,-3.54,0.06,-0.24
83433844.0,366221.1573913,15510.0,1.0,-0.0,-0.04,-3.6,0.61,-0.37
83438624.0,366221.2061283,15511.0,1.0,-0.0,-0.04,-3.6,-0.06,-0.43
83443404.0,366221.254352,15512.0,1.0,-0.01,-0.04,-3.54,0.12,-0.18
83448188.0,366221.3053224,15513.0,1.0,-0.01,-0.04,-3.54,-0.06,-0.43
83452976.0,366221.3678504,15514.0,1.0,-0.01,-0.05,-3.54,0.37,-0.61
83457768.0,366221.4476417,15515.0,1.0,-0.01,-0.04,-3.29,0.24,-0.49
83462552.0,366221.4945513,15516.0,1.0,-0.0,-0.04,-3.66,0.18,-0.49
83467332.0,366221.5438526,15517.0,1.0,-0.01,-0.04,-3.6,0.18,-0.18
83472108.0,366221.5913499,15518.0,1.0,-0.0,-0.03,-3.41,0.18,-0.06
83476868.0,366221.640272,15519.0,1.0,-0.0,-0.05,-3.48,0.67,0.0
83481584.0,366221.6890285,15520.0,1.0,-0.0,-0.03,-3.78,0.3,-0.43
83486348.0,366221.7368292,15521.0,1.0,-0.01,-0.04,-3.35,0.43,-0.12
83491136.0,366221.8315122,15522.0,1.0,-0.01,-0.05,-3.48,0.06,-0.49
83495920.0,366221.8375393,15523.0,1.0,-0.0,-0.04,-3.6,0.12,-0.3
83500684.0,366221.886952,15524.0,1.0,-0.01,-0.05,-3.48,0.3,-0.43
83505468.0,366221.9392518,15525.0,1.0,-0.0,-0.04,-3.78,0.24,-0.55
83510240.0,366221.9847084,15526.0,1.0,-0.01,-0.04,-3.84,0.24,-0.3
83515016.0,366222.0390076,15527.0,1.0,-0.0,-0.04,-3.66,0.3,-0.43
83519792.0,366222.0858785,15528.0,1.0,-0.01,-0.05,-3.78,0.18,-0.49
90101064.0,366222.2302622,16906.0,1.0,-0.01,-0.05,-3.6,0.49,-0.06
90105848.0,366222.2781809,16907.0,1.0,-0.0,-0.05,-3.54,0.24,-0.12
90110628.0,366222.3722532,16908.0,1.0,-0.0,-0.05,-3.41,0.06,-0.43
90115412.0,366222.4174036,16909.0,1.0,-0.01,-0.04,-3.29,0.24,-0.55
90120200.0,366222.470095,16910.0,1.0,-0.0,-0.04,-3.54,0.18,-0.3
90124964.0,366222.517009,16911.0,1.0,-0.0,-0.04,-3.66,0.3,-0.43
90129732.0,366222.5687495,16912.0,1.0,-0.01,-0.04,-3.9,0.0,-0.55
90134460.0,366222.6167991,16913.0,1.0,-0.0,-0.04,-3.41,0.18,-0.3
90139232.0,366222.6662435,16914.0,1.0,-0.01,-0.04,-3.41,0.37,-0.43
90144032.0,366222.7150358,16915.0,1.0,-0.0,-0.04,-3.6,0.37,-0.06
90148784.0,366222.766959,16916.0,1.0,-0.0,-0.05,-3.72,0.24,-0.43
90153564.0,366222.8162863,16917.0,1.0,-0.01,-0.05,-3.9,-0.18,-0.49
90158352.0,366222.8651427,16918.0,1.01,-0.01,-0.04,-3.41,0.18,-0.37
90163156.0,366222.9134711,16919.0,1.0,-0.01,-0.04,-3.6,0.18,-0.55
90167940.0,366223.0079399,16920.0,1.0,-0.0,-0.04,-3.54,0.24,-0.3
90172704.0,366223.0248509,16921.0,0.99,-0.01,-0.04,-3.41,0.37,-0.3
90177496.0,366223.1035108,16922.0,1.0,-0.01,-0.04,-3.6,0.37,-0.12
90182280.0,366223.1477979,16923.0,1.0,-0.01,-0.04,-3.48,0.24,-0.12
90187068.0,366223.2004078,16924.0,1.0,-0.0,-0.04,-3.66,0.49,-0.37
90191852.0,366223.2471743,16925.0,1.01,-0.0,-0.04,-3.48,0.3,-0.24
90196632.0,366223.2981793,16926.0,1.0,-0.0,-0.04,-3.6,0.37,-0.3
90201412.0,366223.3495494,16927.0,1.0,-0.01,-0.05,-3.72,0.18,-0.3
90206192.0,366223.3955829,16928.0,1.01,-0.01,-0.04,-3.41,0.43,-0.24
90210988.0,366223.4894383,16929.0,1.0,-0.0,-0.04,-3.54,0.3,-0.18
90215756.0,366223.5374997,16930.0,1.0,-0.01,-0.05,-3.66,0.24,-0.24
90220540.0,366223.5875679,16931.0,1.0,-0.0,-0.04,-3.35,0.12,-0.24
90225320.0,366223.6352074,16932.0,1.0,-0.01,-0.04,-3.78,0.18,-0.43
90230104.0,366223.7010557,16933.0,1.0,-0.0,-0.04,-3.54,0.3,-0.24
90234876.0,366223.7812822,16934.0,1.0,-0.0,-0.04,-3.6,0.12,-0.06
90239640.0,366223.8289814,16935.0,1.0,-0.01,-0.04,-3.54,0.12,-0.55
90244428.0,366223.8780587,16936.0,1.0,-0.01,-0.04,-3.41,0.0,-0.3
90249156.0,366223.9276786,16937.0,1.0,-0.01,-0.04,-3.48,0.12,-0.18
90253940.0,366223.9757528,16938.0,1.0,-0.0,-0.04,-3.41,0.24,-0.18
90258728.0,366224.0271486,16939.0,1.0,-0.0,-0.04,-3.54,0.24,-0.37
90263508.0,366224.0715829,16940.0,1.0,-0.01,-0.04,-3.66,0.37,-0.3
90268304.0,366224.1663396,16941.0,1.0,-0.01,-0.04,-3.54,0.18,-0.06
90273092.0,366224.1830825,16942.0,1.0,-0.0,-0.04,-3.54,0.43,-0.55
90277872.0,366224.2633157,16943.0,1.0,-0.01,-0.04,-3.48,0.3,-0.43
90282652.0,366224.3092518,16944.0,1.0,-0.01,-0.04,-3.23,0.24,-0.12
90287436.0,366224.3606897,16945.0,1.0,-0.01,-0.04,-3.66,0.24,-0.37
90292236.0,366224.4083027,16946.0,1.0,-0.01,-0.04,-3.78,0.18,-0.18
90297012.0,366224.457401,16947.0,1.0,-0.01,-0.04,-3.54,0.49,-0.49
90301796.0,366224.5099251,16948.0,1.0,-0.0,-0.04,-3.66,0.43,-0.18
90306584.0,366224.5571918,16949.0,1.0,-0.01,-0.03,-3.48,0.24,-0.43
90311360.0,366224.6063546,16950.0,1.0,-0.01,-0.04,-3.6,0.06,-0.24
90316120.0,366224.6553369,16951.0,1.0,-0.0,-0.05,-3.48,0.61,-0.49
90320908.0,366224.7029967,16952.0,1.0,-0.0,-0.05,-3.72,0.3,-0.43
90325684.0,366224.7986394,16953.0,1.0,-0.01,-0.04,-3.48,0.24,-0.24
90330464.0,366224.8006798,16954.0,1.0,-0.01,-0.04,-3.84,0.0,-0.37
90335208.0,366224.8946152,16955.0,1.0,-0.01,-0.04,-3.6,0.37,-0.06
90339988.0,366224.9402502,16956.0,1.0,-0.01,-0.04,-3.29,0.43,-0.24
90344776.0,366224.9913298,16957.0,1.0,-0.0,-0.05,-3.72,0.0,-0.24
90349492.0,366225.0391382,16958.0,1.0,-0.01,-0.04,-3.35,0.3,-0.18
90354280.0,366225.0884627,16959.0,1.0,-0.0,-0.04,-3.6,0.24,-0.3
90359048.0,366225.2074321,16960.0,1.0,-0.01,-0.04,-3.6,0.49,-0.24
90363820.0,366225.2556017,16961.0,1.0,-0.01,-0.04,-3.6,-0.06,-0.3
90368600.0,366225.3122429,16962.0,1.0,-0.01,-0.05,-3.54,0.37,-0.3
90373392.0,366225.3563388,16963.0,0.99,-0.01,-0.05,-3.78,0.3,-0.43
90378172.0,366225.4079701,16964.0,1.0,-0.01,-0.05,-3.6,0.18,-0.24
90382952.0,366225.4556789,16965.0,1.0,-0.01,-0.04,-3.54,0.24,-0.24
90387736.0,366225.5042821,16966.0,1.0,-0.0,-0.05,-3.66,0.0,-0.61
90392456.0,366225.5515874,16967.0,1.0,-0.0,-0.04,-3.48,0.43,-0.37
90397240.0,366225.601488,16968.0,1.0,-0.0,-0.05,-3.84,0.24,-0.55
90402016.0,366225.6499834,16969.0,1.0,-0.01,-0.05,-3.54,0.06,-0.37
90406796.0,366225.6988756,16970.0,1.0,-0.01,-0.04,-3.23,0.18,-0.3
90411576.0,366225.793292,16971.0,1.0,-0.0,-0.04,-3.66,0.3,-0.24
90416356.0,366225.7953158,16972.0,1.0,-0.0,-0.04,-3.78,0.06,-0.24
90421108.0,366225.8891633,16973.0,1.0,-0.01,-0.04,-3.72,0.49,-0.18
90425900.0,366225.936165,16974.0,1.0,-0.01,-0.03,-3.54,0.06,-0.24
90430676.0,366225.9857815,16975.0,1.0,-0.01,-0.04,-3.6,0.18,-0.3
90435436.0,366226.0345203,16976.0,1.0,-0.01,-0.04,-3.78,0.37,-0.3
90440220.0,366226.0829622,16977.0,1.0,-0.0,-0.04,-3.48,0.12,0.12
90444988.0,366226.177737,16978.0,1.0,-0.0,-0.04,-3.35,0.12,-0.3
90449748.0,366226.1798007,16979.0,1.0,-0.0,-0.04,-3.6,0.06,-0.18
90454504.0,366226.2729676,16980.0,1.0,-0.01,-0.04,-3.48,-0.06,-0.24
90459288.0,366226.3199391,16981.0,1.0,-0.0,-0.04,-3.54,0.12,-0.24
90464052.0,366226.3695994,16982.0,1.0,-0.01,-0.05,-3.54,0.37,-0.3
90468832.0,366226.4175446,16983.0,1.0,-0.01,-0.03,-3.35,0.12,-0.37
90473632.0,366226.4668466,16984.0,1.0,-0.01,-0.05,-3.54,0.24,-0.18
90478400.0,366226.5155953,16985.0,1.0,-0.0,-0.04,-3.6,0.3,-0.37
90483164.0,366226.5647671,16986.0,1.01,-0.0,-0.04,-3.48,0.24,-0.49
90487952.0,366226.6586219,16987.0,1.01,-0.0,-0.04,-3.84,0.06,-0.24
90492720.0,366226.7033508,16988.0,1.0,-0.0,-0.04,-3.29,0.24,-0.3
90497492.0,366226.7551355,16989.0,1.0,-0.01,-0.04,-3.78,0.24,-0.18
90502280.0,366226.8026641,16990.0,1.0,-0.0,-0.04,-3.6,-0.12,-0.12
90507052.0,366226.8519785,16991.0,1.0,-0.01,-0.04,-3.54,0.3,-0.24
90511836.0,366226.946589,16992.0,1.0,-0.01,-0.04,-3.48,0.3,-0.24
90516624.0,366226.9903893,16993.0,1.0,-0.0,-0.04,-3.54,0.24,-0.3
90521392.0,366227.0427553,16994.0,1.0,-0.0,-0.04,-3.48,0.12,-0.24
90526172.0,366227.0869529,16995.0,1.0,-0.0,-0.04,-3.48,0.24,-0.37
90530960.0,366227.1391347,16996.0,1.01,-0.01,-0.04,-3.35,0.06,-0.24
90535744.0,366227.1871481,16997.0,1.0,-0.0,-0.04,-3.54,0.24,-0.24
90540524.0,366227.2363643,16998.0,1.01,-0.01,-0.05,-3.72,0.37,-0.12
90545324.0,366227.2853793,16999.0,1.0,-0.0,-0.04,-3.54,0.18,-0.3
90550084.0,366227.349619,17000.0,1.0,-0.01,-0.04,-3.48,0.24,-0.49
90554864.0,366227.4292842,17001.0,1.0,-0.01,-0.04,-3.9,0.37,-0.3
90559644.0,366227.473927,17002.0,1.01,-0.0,-0.04,-3.54,0.24,-0.55
90564424.0,366227.5261633,17003.0,1.0,-0.01,-0.04,-3.41,0.61,-0.24
90569220.0,366227.5742526,17004.0,1.0,-0.0,-0.05,-3.35,0.06,-0.73
90573996.0,366227.6230941,17005.0,1.0,-0.0,-0.04,-3.78,0.3,-0.37
90578760.0,366227.6761046,17006.0,1.0,-0.0,-0.04,-3.35,0.37,-0.37
90583544.0,366227.720147,17007.0,1.0,-0.0,-0.05,-3.48,0.06,-0.37
90588320.0,366227.7725194,17008.0,1.0,-0.0,-0.04,-3.6,0.24,-0.3
90593072.0,366227.8213936,17009.0,1.0,-0.01,-0.05,-3.66,0.24,-0.18
90597856.0,366227.8724222,17010.0,1.0,-0.01,-0.05,-3.72,0.24,-0.24
90602644.0,366227.9218614,17011.0,1.0,-0.0,-0.05,-3.6,0.12,-0.43
90607408.0,366227.9707983,17012.0,1.0,-0.01,-0.04,-3.41,0.18,-0.49
90612188.0,366228.0195525,17013.0,1.0,-0.0,-0.04,-3.41,0.37,-0.18
90616976.0,366228.0697386,17014.0,1.0,-0.0,-0.04,-3.6,0.06,-0.43
90621732.0,366228.1178531,17015.0,1.0,-0.0,-0.04,-3.6,0.24,-0.18
90626492.0,366228.1674769,17016.0,1.0,-0.0,-0.04,-3.54,0.3,-0.43
90631268.0,366228.2160055,17017.0,1.01,-0.01,-0.04,-3.66,0.3,0.0
90635996.0,366228.3107542,17018.0,1.0,-0.0,-0.04,-3.54,0.18,-0.55
90640768.0,366228.3275516,17019.0,1.0,-0.01,-0.04,-3.72,0.18,-0.43
90645552.0,366228.4068112,17020.0,1.01,-0.0,-0.04,-3.41,0.0,-0.18
90650280.0,366228.4532502,17021.0,1.0,-0.01,-0.04,-3.72,0.12,-0.24
90655072.0,366228.5036465,17022.0,1.0,-0.01,-0.04,-3.6,0.24,-0.43
90659860.0,366228.5513944,17023.0,1.0,-0.01,-0.04,-3.54,0.24,0.06
90664620.0,366228.6013154,17024.0,1.0,-0.0,-0.04,-3.54,0.3,-0.24
90669392.0,366228.6503925,17025.0,1.0,-0.01,-0.05,-3.54,0.37,-0.18
90674172.0,366228.7033663,17026.0,1.0,-0.01,-0.04,-3.41,0.06,-0.3
90678944.0,366228.7515502,17027.0,1.0,-0.01,-0.04,-3.72,0.06,-0.37
90683728.0,366228.8000136,17028.0,1.0,-0.01,-0.04,-3.29,0.18,-0.12
90688520.0,366228.8482815,17029.0,1.0,-0.01,-0.05,-3.6,-0.06,-0.06
90693288.0,366228.9006588,17030.0,1.0,-0.01,-0.04,-3.72,0.12,-0.18
90698068.0,366228.9461222,17031.0,1.0,-0.0,-0.05,-3.54,0.43,-0.43
90702860.0,366229.0420733,17032.0,1.0,-0.01,-0.04,-3.41,0.12,-0.3
90707636.0,366229.0890082,17033.0,1.0,-0.0,-0.04,-3.72,0.24,-0.43
90712416.0,366229.1393957,17034.0,1.0,-0.01,-0.04,-3.66,0.37,-0.37
90717216.0,366229.1872706,17035.0,1.0,-0.01,-0.04,-3.48,0.43,-0.18
90721992.0,366229.2364711,17036.0,1.0,-0.01,-0.04,-3.54,0.49,-0.37
90726772.0,366229.2842787,17037.0,1.0,-0.01,-0.04,-3.78,0.12,-0.61
90731560.0,366229.3349031,17038.0,1.01,-0.0,-0.04,-3.29,0.24,-0.55
90736340.0,366229.3841121,17039.0,1.0,-0.0,-0.04,-3.66,0.24,-0.3
97317312.0,366229.4792023,18417.0,1.0,-0.0,-0.04,-3.48,0.37,-0.24
97322088.0,366229.5286147,18418.0,1.0,-0.0,-0.04,-3.35,0.0,-0.18
97326808.0,366229.5802622,18419.0,1.0,-0.01,-0.04,-3.48,0.06,-0.37
97331588.0,366229.628072,18420.0,1.0,-0.01,-0.03,-3.48,0.3,-0.3
97336376.0,366229.6780123,18421.0,1.0,-0.0,-0.04,-3.66,0.24,-0.55
97341140.0,366229.7306604,18422.0,1.0,-0.01,-0.04,-3.78,0.18,-0.3
97345920.0,366229.7780854,18423.0,1.0,-0.0,-0.05,-3.48,0.06,-0.43
97350700.0,366229.8283347,18424.0,1.0,-0.0,-0.04,-3.6,0.24,-0.55
97355468.0,366229.8770135,18425.0,1.0,-0.0,-0.04,-3.54,0.43,-0.06
97360240.0,366229.9251678,18426.0,1.0,-0.0,-0.05,-3.96,-0.06,-0.43
97365028.0,366230.021003,18427.0,1.0,-0.0,-0.04,-3.6,-0.18,-0.24
97369800.0,366230.066263,18428.0,1.0,-0.0,-0.04,-3.6,0.37,-0.06
97374564.0,366230.1189233,18429.0,1.0,-0.0,-0.04,-3.23,0.3,-0.3
97379340.0,366230.1652521,18430.0,1.0,-0.01,-0.04,-3.48,0.3,-0.12
97384120.0,366230.2153299,18431.0,1.0,-0.0,-0.04,-3.54,0.06,-0.3
97388880.0,366230.2639227,18432.0,1.0,-0.01,-0.05,-3.78,0.24,-0.3
97393660.0,366230.3130756,18433.0,1.0,-0.01,-0.04,-3.48,0.3,-0.43
97398440.0,366230.3653825,18434.0,1.0,-0.0,-0.04,-3.6,0.0,-0.3
97403164.0,366230.4179554,18435.0,1.0,-0.01,-0.04,-3.6,0.37,-0.43
97407948.0,366230.4621852,18436.0,1.0,-0.0,-0.04,-3.48,0.24,-0.18
97412732.0,366230.5162528,18437.0,1.0,-0.0,-0.04,-3.6,0.24,-0.43
97417500.0,366230.5637943,18438.0,1.0,-0.01,-0.04,-3.66,0.18,-0.24
97422280.0,366230.6139037,18439.0,1.0,-0.0,-0.04,-3.78,0.3,-0.12
97427052.0,366230.6628552,18440.0,1.0,-0.0,-0.04,-3.35,-0.06,-0.43
97431844.0,366230.7104803,18441.0,1.0,-0.0,-0.04,-3.66,0.12,-0.49
97436624.0,366230.8041243,18442.0,1.0,-0.0,-0.04,-3.54,0.3,-0.55
97441396.0,366230.8209921,18443.0,1.0,-0.0,-0.04,-3.48,0.06,-0.3
97446164.0,366230.9010368,18444.0,1.0,-0.01,-0.05,-3.6,0.06,-0.3
97450924.0,366230.9480706,18445.0,1.0,-0.01,-0.04,-3.6,0.0,-0.49
97455652.0,366230.9972885,18446.0,1.0,-0.01,-0.04,-3.72,0.24,-0.24
97460440.0,366231.044653,18447.0,1.0,-0.01,-0.04,-3.54,0.18,-0.24
97465220.0,366231.0953337,18448.0,1.0,-0.01,-0.03,-3.35,0.43,-0.37
97470012.0,366231.143926,18449.0,1.0,-0.01,-0.04,-3.66,0.55,-0.37
97474812.0,366231.1922406,18450.0,1.0,-0.0,-0.04,-3.66,0.3,-0.37
97479572.0,366231.2862116,18451.0,1.0,-0.01,-0.04,-3.54,0.0,-0.49
97484300.0,366231.303075,18452.0,1.0,-0.01,-0.04,-3.78,0.24,-0.37
97489092.0,366231.3822925,18453.0,0.99,-0.0,-0.04,-3.54,0.24,-0.43
97493860.0,366231.4269454,18454.0,1.0,-0.01,-0.04,-3.48,0.43,-0.37
97498656.0,366231.4795898,18455.0,1.0,-0.0,-0.04,-3.54,0.24,-0.24
97503432.0,366231.5268969,18456.0,1.0,-0.01,-0.04,-3.84,0.06,-0.06
97508196.0,366231.5759469,18457.0,1.0,-0.01,-0.05,-3.72,0.3,-0.18
97512976.0,366231.6241865,18458.0,1.0,-0.01,-0.04,-3.72,0.24,-0.37
97517764.0,366231.6718841,18459.0,1.0,-0.0,-0.05,-3.54,0.3,-0.37
97522528.0,366231.7659728,18460.0,1.0,-0.01,-0.04,-3.54,0.37,-0.18
97527320.0,366231.8097374,18461.0,1.0,-0.01,-0.04,-3.48,0.06,-0.61
97532112.0,366231.8621452,18462.0,1.0,-0.0,-0.04,-3.41,0.43,-0.18
97536892.0,366231.9099788,18463.0,1.0,-0.01,-0.04,-3.54,0.3,-0.24
97541664.0,366231.9586138,18464.0,1.0,-0.01,-0.04,-3.6,0.24,-0.55
97546452.0,366232.007717,18465.0,1.0,-0.0,-0.04,-3.6,0.12,-0.43
97551216.0,366232.055294,18466.0,1.0,-0.01,-0.04,-3.78,0.18,-0.3
97556000.0,366232.1491238,18467.0,1.0,-0.0,-0.04,-3.17,0.18,-0.55
97560788.0,366232.1944715,18468.0,1.0,-0.0,-0.05,-3.54,0.18,-0.3
97565548.0,366232.247138,18469.0,1.0,-0.0,-0.04,-3.66,0.12,-0.18
97570324.0,366232.2940184,18470.0,1.0,-0.0,-0.04,-3.84,0.06,-0.37
97575104.0,366232.3439167,18471.0,1.0,-0.0,-0.04,-3.72,0.3,-0.24
97579868.0,366232.3927024,18472.0,1.0,-0.01,-0.04,-3.66,0.06,-0.24
97584652.0,366232.4406439,18473.0,1.0,-0.01,-0.04,-3.6,0.18,-0.24
97589436.0,366232.4955832,18474.0,1.0,-0.0,-0.04,-3.48,-0.06,0.0
97594156.0,366232.5448865,18475.0,1.0,-0.0,-0.04,-3.23,0.43,-0.24
97598940.0,366232.5945865,18476.0,1.0,-0.0,-0.04,-3.48,0.12,-0.37
97603728.0,366232.6446443,18477.0,1.0,-0.01,-0.04,-3.35,0.55,-0.12
97608508.0,366232.6932393,18478.0,1.0,-0.0,-0.04,-3.6,0.43,-0.3
97613284.0,366232.7892897,18479.0,1.0,-0.0,-0.04,-3.41,0.12,-0.55
97618072.0,366232.8344855,18480.0,1.0,-0.01,-0.05,-3.66,0.3,-0.37
97622852.0,366232.88743,18481.0,1.0,-0.01,-0.04,-3.66,0.3,-0.24
97627632.0,366232.905392,18482.0,1.0,-0.01,-0.04,-3.78,0.24,-0.3
97632424.0,366232.9854456,18483.0,1.0,-0.01,-0.04,-3.48,0.12,-0.3
97637208.0,366233.0384455,18484.0,1.0,-0.0,-0.04,-3.54,0.06,-0.43
97641980.0,366233.0405639,18485.0,1.0,-0.0,-0.04,-3.41,0.37,-0.43
97646768.0,366233.134995,18486.0,1.0,-0.01,-0.05,-3.48,0.24,-0.24
97651548.0,366233.1516885,18487.0,1.0,-0.0,-0.05,-3.48,0.18,-0.37
97656332.0,366233.230641,18488.0,1.0,-0.01,-0.04,-3.84,0.24,-0.37
97661120.0,366233.2746881,18489.0,1.0,-0.01,-0.05,-3.54,0.3,-0.3
97665884.0,366233.3268708,18490.0,1.0,-0.0,-0.04,-3.54,-0.06,-0.06
97670644.0,366233.3740345,18491.0,1.0,-0.01,-0.04,-3.41,0.61,-0.37
97675444.0,366233.4233781,18492.0,1.01,-0.01,-0.03,-3.66,0.12,-0.24
97680228.0,366233.4722826,18493.0,1.0,-0.01,-0.04,-3.66,0.06,-0.06
97685000.0,366233.5203154,18494.0,1.0,-0.01,-0.04,-3.9,0.3,-0.12
97689788.0,366233.6149438,18495.0,1.0,-0.01,-0.04,-3.54,0.24,-0.3
97694552.0,366233.6317837,18496.0,1.0,-0.01,-0.04,-3.29,0.12,-0.43
97699336.0,366233.7113603,18497.0,1.0,-0.0,-0.04,-3.66,0.49,-0.43
97704116.0,366233.7555325,18498.0,1.0,-0.0,-0.04,-3.6,0.49,-0.24
97708876.0,366233.8073697,18499.0,1.0,-0.0,-0.04,-3.41,0.3,-0.3
97713648.0,366233.8551833,18500.0,1.0,-0.01,-0.04,-3.35,0.37,-0.24
97718448.0,366233.9038028,18501.0,1.0,-0.01,-0.04,-3.72,0.18,-0.49
97723232.0,366233.9552638,18502.0,1.0,-0.01,-0.05,-3.48,0.06,-0.49
97728016.0,366234.0006684,18503.0,1.0,-0.0,-0.05,-3.41,0.24,-0.12
97732792.0,366234.0512272,18504.0,1.0,-0.0,-0.04,-3.84,0.24,-0.24
97737556.0,366234.0989187,18505.0,1.0,-0.0,-0.04,-3.48,0.49,-0.37
97742336.0,366234.1930204,18506.0,1.0,-0.01,-0.04,-3.78,0.18,-0.24
97747128.0,366234.2096699,18507.0,1.0,-0.01,-0.04,-3.9,0.3,-0.18
97751900.0,366234.2880035,18508.0,1.0,-0.0,-0.03,-3.54,-0.06,-0.18
97756672.0,366234.3356573,18509.0,1.0,-0.01,-0.04,-3.66,0.37,-0.43
97761472.0,366234.3846609,18510.0,1.0,-0.01,-0.04,-3.66,0.12,-0.18
97766252.0,366234.4318697,18511.0,1.0,-0.0,-0.04,-3.66,0.3,-0.49
97771028.0,366234.4815341,18512.0,1.0,-0.01,-0.04,-3.78,0.18,-0.43
97775816.0,366234.5760096,18513.0,1.0,-0.01,-0.04,-3.54,-0.06,-0.18
97780600.0,366234.620661,18514.0,1.0,-0.0,-0.05,-3.35,0.18,-0.37
97785380.0,366234.6728827,18515.0,1.0,-0.01,-0.04,-3.41,0.37,-0.43
97790180.0,366234.7205767,18516.0,1.0,-0.0,-0.04,-3.35,0.3,-0.37
97794956.0,366234.7697276,18517.0,1.0,-0.01,-0.04,-3.6,0.37,0.0
97799684.0,366234.8188421,18518.0,1.0,-0.01,-0.04,-3.41,0.37,-0.3
97804472.0,366234.8663507,18519.0,1.0,-0.0,-0.04,-3.41,0.18,-0.12
97809244.0,366234.9600504,18520.0,1.0,-0.01,-0.04,-3.54,0.24,-0.49
97814024.0,366234.9766435,18521.0,1.0,-0.0,-0.04,-3.6,0.0,-0.24
97818756.0,366235.0559469,18522.0,1.0,-0.01,-0.04,-3.6,0.0,-0.37
97823476.0,366235.1030984,18523.0,1.0,-0.0,-0.04,-3.41,0.18,-0.43
97828260.0,366235.1523423,18524.0,1.0,-0.01,-0.04,-3.54,0.12,-0.43
97833048.0,366235.1994762,18525.0,1.0,-0.01,-0.03,-3.41,0.12,-0.43
97837832.0,366235.2496056,18526.0,1.0,-0.0,-0.04,-3.66,0.06,-0.12
97842604.0,366235.2987302,18527.0,1.0,-0.0,-0.04,-3.23,0.37,-0.12
97847392.0,366235.3463989,18528.0,1.0,-0.0,-0.05,-3.35,0.37,-0.3
97852164.0,366235.4410548,18529.0,1.0,-0.01,-0.04,-3.41,0.3,-0.43
97856948.0,366235.4855172,18530.0,1.0,-0.01,-0.05,-3.9,0.3,-0.24
97861724.0,366235.5379322,18531.0,1.0,-0.01,-0.04,-3.84,0.18,-0.3
97866496.0,366235.5854343,18532.0,1.01,-0.01,-0.04,-3.6,0.0,-0.12
97871232.0,366235.6348996,18533.0,1.0,-0.01,-0.04,-3.48,0.24,-0.55
97876032.0,366235.7291989,18534.0,1.0,-0.01,-0.04,-3.35,0.49,-0.37
97880828.0,366235.7733494,18535.0,1.01,-0.0,-0.04,-3.41,0.3,-0.18
97885612.0,366235.8262199,18536.0,1.0,-0.01,-0.04,-3.23,0.37,-0.24
97890400.0,366235.8709579,18537.0,1.0,-0.0,-0.04,-3.72,0.3,-0.43
97895160.0,366235.9239794,18538.0,1.0,-0.0,-0.04,-3.6,0.43,-0.24
97899932.0,366235.9713918,18539.0,1.0,-0.01,-0.04,-3.54,0.24,-0.37
97904732.0,366236.0212778,18540.0,1.0,-0.0,-0.04,-3.6,-0.06,-0.37
97909496.0,366236.0707589,18541.0,1.0,-0.0,-0.04,-3.41,-0.06,-0.24
97914280.0,366236.1185456,18542.0,1.0,-0.01,-0.04,-3.48,0.12,-0.55
97919080.0,366236.2137838,18543.0,1.0,-0.01,-0.04,-3.54,0.3,0.06
97923844.0,366236.2581849,18544.0,1.0,-0.0,-0.04,-3.41,0.18,-0.18
97928620.0,366236.3114356,18545.0,1.0,-0.01,-0.04,-3.41,0.3,-0.18
97933408.0,366236.3589293,18546.0,1.0,-0.01,-0.05,-3.6,0.12,-0.3
97938176.0,366236.4078148,18547.0,1.0,-0.0,-0.04,-3.54,0.37,0.0
97942896.0,366236.5017877,18548.0,1.0,-0.01,-0.04,-3.41,0.12,-0.24
97947684.0,366236.5186203,18549.0,1.0,-0.01,-0.04,-3.78,0.18,-0.24
97952464.0,366236.5982357,18550.0,1.0,-0.01,-0.04,-3.66,0.49,-0.24
104476128.0,366236.6956707,19909.0,1.0,-0.0,-0.04,-3.48,0.12,-0.43
104480948.0,366236.7432488,19910.0,1.0,-0.01,-0.04,-3.54,0.3,-0.55
104485768.0,366236.8394754,19911.0,1.0,-0.01,-0.04,-3.66,0.24,-0.24
104490580.0,366236.8835633,19912.0,1.01,-0.01,-0.04,-3.66,0.06,-0.3
104495404.0,366236.9362601,19913.0,1.0,-0.01,-0.05,-3.54,0.06,-0.3
